0,1405000298,utime,,bx(uT),by(uT),bz(uT),,B(uT),ax,,,,ay,,az,,,,,A,,,,,gx,,,gy,,,,gz,,,T(C),rate,,track,tilt,roll
0,1405000298,mins,,-1000,-1000,-1000,,,,,0,,,,-2000,-2000,-2000,,0,,,-2000,,-2000,-2000,-2000,,0,,0,,-180,-180
0,1405000298,maxs,,,1000,,1000,,1000,,,,1000,,,2000,,2000,,2000,2000,,2000,,,2000,,2000,,2000,,37000,360,180,180
0,1405000298,attr,,,,,F,,,,,F,,,,,F,,,,,,F,,,,,,F,,,,,F,,,,F,,,,,F,,,,,F,,,,,,F,,,,,F,,,,,F,,,,,I,F,F,F
0,1405000299,2305,-1.23853,5.19878,-2.61468,5.9496,-1.40552,-0.079184,0.633472,1.54371,0.266667,1.43768,-0.637681,2.62889,0,0,0,0
0,1405000300,3310,-6.96195,31.584,-15.0247,35.6617,-8.42937,-0.505639,3.84033,9.27674,2.61686,4.70991,-0.106563,26.479,10,0,0,0
0,1405000301,4317,-6.93496,31.0426,-15.595,35.4252,-8.45373,-0.522696,3.8109,9.28772,0.5004,4.41943,-2.01481,26.5644,7,0,0,0
0,1405000302,5319,-6.62336,31.6245,-15.0407,35.6398,-8.44358,-0.496976,3.81557,9.27898,1.93951,4.23305,-0.947162,26.6698,7,0,0,0
0,1405000303,6326,-6.68918,31.2815,-15.2971,35.4582,-8.48428,-0.62018,3.77355,9.30631,1.58928,3.55523,-1.06997,26.714,7,0,0,0
0,1405000304,7327,-6.40722,31.1947,-15.596,35.4598,-8.46092,-0.512268,3.80194,9.29001,2.17633,4.41309,-1.07225,26.7565,7,0,0,0
0,1405000305,8330,-6.24618,31.2148,-14.9609,35.1739,-8.43657,-0.535229,3.77982,9.26009,2.61512,4.24073,-1.44675,26.7109,6,0,0,0
0,1405000306,9337,-6.74316,31.9667,-15.0347,35.9637,-8.47736,-0.484203,3.76128,9.28694,2.88693,5.46774,-1.36489,26.8898,3,0,0,0
0,1405000307,10343,-6.81995,31.3284,-15.2988,35.5251,-8.45116,-0.552368,3.80818,9.28598,4.08528,4.21711,-2.53876,26.8132,6,0,0,0
0,1405000308,11344,-6.58312,31.5902,-15.1286,35.6392,-8.4444,-0.543366,3.81658,9.28275,1.21023,5.79427,-0.880476,26.9235,6,0,0,0
0,1405000309,12347,-7.08946,31.2552,-15.4225,35.5668,-8.45098,-0.516247,3.7972,9.27924,0.0329678,5.25255,-1.51591,26.9184,6,0,0,0
0,1405000310,13354,-6.89837,30.9693,-15.9879,35.5289,-8.47391,-0.523427,3.79033,9.29773,2.0207,4.44074,-2.02529,27.0657,7,0,0,0
0,1405000311,14361,-6.63052,31.1045,-15.7979,35.5109,-8.44749,-0.515259,3.82355,9.28683,2.95261,4.70077,-1.18264,26.9973,7,0,0,0
0,1405000312,15377,-6.89195,31.0335,-15.66,35.4374,-8.46252,-0.524788,3.792,9.2881,1.99842,5.06969,-0.619652,27.0003,7,0,0,0
0,1405000313,16378,-7.18892,31.1924,-16.3489,35.9435,-8.4822,-0.539492,3.82024,9.31842,2.45795,4.59919,-1.23474,27.0394,6,0,0,0
0,1405000314,17381,-7.03431,31.5276,-16.3748,36.2161,-8.44313,-0.602783,3.80677,9.28124,2.71206,4.54508,-0.21587,27.1034,7,0,0,0
0,1405000315,18386,-10.0492,30.411,-19.3431,37.4162,-8.48901,-0.591982,3.8069,9.32235,3.63463,5.3476,-0.161397,27.0985,6,0,0,0
0,1405000316,19392,-10.6338,30.5086,-18.9386,37.4502,-8.46925,-0.529342,3.79277,9.29481,3.4716,5.07298,-1.90403,27.0769,6,0,0,0
0,1405000317,20398,-10.5791,30.669,-18.6061,37.3991,-8.46285,-0.588307,3.78923,9.29108,1.29524,4.91668,-1.34745,27.1179,7,0,0,0
0,1405000318,21401,-10.7081,30.4437,-18.2409,37.0704,-8.46297,-0.541435,3.8137,9.29835,1.21631,4.64655,-1.64634,27.2806,7,0,0,0
0,1405000319,22403,-10.77,31.6149,-17.5945,37.75,-8.43967,-0.525176,3.7747,9.26025,1.24142,5.62021,-2.24759,27.3191,7,0,0,0
0,1405000320,23409,-10.7088,30.9903,-17.6805,37.2515,-8.45965,-0.55456,3.79921,9.29017,3.54763,4.9727,-0.42413,27.3023,6,0,0,0
0,1405000321,24414,-10.809,30.9151,-17.4936,37.1295,-8.46965,-0.539626,3.7994,9.29847,2.59714,5.6805,-0.380578,27.3882,7,0,0,0
0,1405000322,25424,-10.5519,31.2167,-17.565,37.3411,-8.4627,-0.501404,3.76476,9.27589,1.38203,5.48616,-1.27457,27.3458,7,0,0,0
0,1405000323,26428,-10.7849,31.1532,-17.5789,37.3611,-8.46139,-0.559549,3.81464,9.29837,0.436324,5.93387,0.178356,27.3263,7,0,0,0
0,1405000324,27430,-10.4018,31.708,-17.7794,37.8114,-8.45642,-0.523947,3.83019,9.29817,2.47494,4.93137,-0.542497,27.3921,7,0,0,0
0,1405000325,28440,-11.1242,31.2728,-17.2023,37.3852,-8.45378,-0.505462,3.83483,9.29666,0.931904,5.45072,-0.69656,27.3904,7,0,0,0
0,1405000326,29441,-11.1949,31.0836,-17.5182,37.3953,-8.47496,-0.460837,3.81946,9.30728,1.16669,4.51697,-0.79585,27.4197,7,0,0,0
0,1405000327,30443,-10.6878,31.2205,-18.1724,37.6721,-8.45499,-0.504595,3.786,9.27767,2.16366,4.57923,-2.20947,27.5688,6,0,0,0
0,1405000328,31447,-10.7575,31.5058,-17.7118,37.7101,-8.47474,-0.522423,3.83557,9.31696,2.74453,6.0291,-1.17469,27.6476,6,0,0,0
0,1405000329,32449,-10.1717,31.2925,-17.6041,37.3174,-8.44065,-0.439262,3.76705,9.25355,2.98022,5.54899,-1.3583,27.6469,7,0,0,0
0,1405000330,33450,-10.8347,31.4168,-17.4815,37.5501,-8.46504,-0.482986,3.81119,9.29598,1.60844,4.81574,-1.8022,27.6633,7,0,0,0
0,1405000331,34991,-10.5457,30.8182,-17.8347,37.1356,-8.46177,-0.50386,3.82188,9.2985,3.36531,5.65122,-1.8421,27.6588,4,0,0,0
0,1405000332,35999,-10.9608,30.9197,-17.503,37.1823,-8.48226,-0.439866,3.8161,9.31154,2.09651,5.83084,-0.899248,27.8844,6,0,0,0
0,1405000334,37004,-10.8721,30.8699,-17.8982,37.3028,-8.47605,-0.469557,3.78162,9.29326,3.77829,4.15247,-1.88518,27.7803,6,0,0,0
0,1405000335,38015,-10.6698,31.2426,-17.5844,37.4053,-8.49107,-0.548884,3.79938,9.31852,1.13669,5.54789,-1.671,27.9089,7,0,0,0
0,1405000336,39318,-10.3848,31.0442,-17.697,37.2125,-8.4748,-0.493829,3.7898,9.2967,1.1626,5.4532,-1.494,27.8251,6,0,0,0
0,1405000337,40324,-10.5377,31.5868,-17.3512,37.5477,-8.47045,-0.459747,3.78702,9.28986,3.00262,3.95739,-1.44447,27.975,7,0,0,0
0,1405000338,41326,-10.386,31.2073,-17.5774,37.2925,-8.46242,-0.485615,3.75702,9.27165,2.47366,5.43179,-0.178756,28.0639,7,0,0,0
0,1405000339,42333,-10.3013,31.7716,-17.7314,37.8148,-8.4737,-0.454463,3.77889,9.28925,2.99094,6.05879,-2.05197,27.98,8,0,0,0
0,1405000340,43338,-9.98518,31.3211,-18.3531,37.6504,-8.44997,-0.456451,3.78916,9.27189,1.08105,4.88852,-1.54311,28.0748,6,0,0,0
0,1405000341,44346,-10.3898,31.1764,-17.9462,37.4431,-8.47611,-0.481841,3.81364,9.30701,0.551246,5.34861,-1.66933,28.085,6,0,0,0
0,1405000342,45348,-10.425,31.5065,-17.7445,37.6325,-8.47137,-0.472148,3.78629,9.29102,0.572501,4.94947,-0.638524,28.1191,7,0,0,0
0,1405000343,46354,-10.2357,31.6197,-17.7944,37.699,-8.46907,-0.450914,3.79974,9.29336,2.22897,5.05135,-1.05858,28.1478,6,0,0,0
0,1405000344,47363,-10.0295,31.5148,-18.1858,37.7425,-8.47783,-0.487657,3.78164,9.29581,3.35255,5.2106,-0.351935,28.1653,6,0,0,0
0,1405000345,48364,-10.6897,31.1746,-17.083,37.1208,-8.45637,-0.507448,3.77844,9.27601,0.715182,5.40317,-0.377887,28.2987,6,0,0,0
0,1405000346,49367,-10.5369,31.6818,-17.3263,37.616,-8.45241,-0.49922,3.80121,9.28125,0.398079,4.15285,-0.709426,28.2834,6,0,0,0
0,1405000347,50375,-10.3624,31.2885,-17.645,37.3858,-8.45389,-0.497959,3.78834,9.27727,1.47726,4.92501,-0.807775,28.4109,6,0,0,0
0,1405000348,51377,-10.4508,31.1136,-17.2734,37.0898,-8.45874,-0.471988,3.81863,9.29274,0.894756,5.42209,-1.77442,28.3357,5,0,0,0
0,1405000349,52378,-10.216,31.0864,-18.0648,37.3774,-8.46913,-0.475664,3.78472,9.28852,2.71946,6.06935,-1.55234,28.4601,7,0,0,0
0,1405000350,53388,-10.571,31.3216,-17.8121,37.5508,-8.48683,-0.477249,3.816,9.3175,1.11419,4.05635,-1.22753,28.4059,6,0,0,0
0,1405000351,54392,-10.2407,31.2001,-17.049,36.9999,-8.4688,-0.502963,3.7691,9.2833,1.51198,5.34856,-1.0653,28.4334,8,0,0,0
0,1405000352,55398,-10.6354,31.0513,-17.0973,37.0083,-8.4622,-0.473747,3.77241,9.27709,3.50914,3.82377,-0.648179,28.4959,6,0,0,0
0,1405000353,56399,-10.4336,31.2486,-17.6457,37.3725,-8.45401,-0.496128,3.79122,9.27846,0.348977,4.77795,0.299624,28.4115,8,0,0,0
0,1405000354,57400,-10.2832,31.1535,-17.3406,37.1077,-8.4636,-0.503012,3.79555,9.28934,1.94702,4.59683,-0.568867,28.5014,7,0,0,0
0,1405000355,58407,-10.2482,31.2344,-17.5229,37.2514,-8.48037,-0.492862,3.79658,9.30449,0.905333,5.87794,-0.728492,28.6233,6,0,0,0
0,1405000357,60035,-10.5561,31.1528,-17.7966,37.3985,-8.46891,-0.510392,3.80358,9.29785,2.85021,5.17813,-1.62723,28.6097,5,0,0,0
0,1405000358,61038,-10.5835,31.4733,-17.7538,37.6534,-8.47435,-0.491163,3.79472,9.29816,2.28527,5.32164,-1.76265,28.5853,8,0,0,0
0,1405000359,62041,-10.2598,31.4513,-17.7687,37.5523,-8.46665,-0.484787,3.80066,9.29323,2.48351,5.0027,-0.412693,28.6498,7,0,0,0
0,1405000360,63046,-10.5306,30.8256,-17.6453,37.0468,-8.46217,-0.485734,3.80853,9.29242,2.09709,4.72604,-0.309724,28.711,6,0,0,0
0,1405000361,64343,-10.3093,30.8806,-17.7194,37.0657,-8.44422,-0.481231,3.78284,9.26533,0.735144,4.93421,-1.13871,28.6825,5,0,0,0
0,1405000362,65350,-10.4921,31.0519,-17.6042,37.205,-8.45567,-0.485882,3.75439,9.26444,1.28865,5.24861,-1.0034,28.7009,7,0,0,0
0,1405000363,66356,-10.5359,31.1032,-17.6703,37.2915,-8.46727,-0.499576,3.76102,9.27845,3.696,5.48795,-2.97122,28.8305,7,0,0,0
0,1405000364,67360,-10.4778,30.8412,-17.633,37.039,-8.48082,-0.483013,3.77792,9.29679,1.53193,5.43671,-0.568881,28.8092,6,0,0,0
0,1405000365,68370,-10.4912,31.252,-17.8285,37.4781,-8.45965,-0.515351,3.79355,9.2856,-0.64076,4.75703,-2.28249,28.8503,6,0,0,0
0,1405000367,70133,-10.2496,31.1627,-17.5029,37.1823,-8.4485,-0.486659,3.78816,9.27168,1.33244,5.32066,-1.41017,28.9155,7,0,0,0
0,1405000368,71140,-10.4715,31.4573,-17.7416,37.6029,-8.43948,-0.486773,3.79365,9.26571,3.57926,5.38143,-1.04937,28.9292,7,0,0,0
0,1405000369,72141,-10.1222,31.1351,-18.3199,37.5163,-8.46563,-0.500254,3.78236,9.28566,1.24863,4.16639,-0.351489,28.9653,8,0,0,0
0,1405000370,73150,-10.4118,31.0084,-17.4361,37.0668,-8.4829,-0.507411,3.79322,9.30621,2.07122,4.82436,-1.13142,28.9179,6,0,0,0
0,1405000371,74956,-10.2595,31.4061,-17.693,37.4786,-8.46521,-0.471963,3.79903,9.29059,2.72792,5.86295,-2.46129,29.024,6,0,0,0
0,1405000372,75957,-10.1018,31.626,-17.1825,37.383,-8.44592,-0.505625,3.79313,9.27238,0.749098,4.85737,-1.0794,28.9886,7,0,0,0
0,1405000373,76965,-10.2298,31.5625,-17.025,37.292,-8.45733,-0.499453,3.78008,9.27711,2.2619,5.85228,-0.516927,29.1429,7,0,0,0
0,1405000374,77966,-10.0471,31.7347,-17.5914,37.6496,-8.45263,-0.509099,3.83877,9.29743,1.1644,5.02567,-0.389858,29.2156,6,0,0,0
0,1405000375,78969,-10.1182,31.9462,-17.4971,37.8032,-8.45625,-0.519301,3.79711,9.28417,1.09565,5.65238,-1.41395,29.1925,7,0,0,0
0,1405000376,79983,-10.2023,31.5734,-17.4065,37.4694,-8.46064,-0.477049,3.78561,9.28121,-0.187859,4.9772,-1.89394,29.2282,7,0,0,0
0,1405000377,80991,-10.1854,31.59,-17.4963,37.5205,-8.46577,-0.476938,3.81526,9.29801,2.82362,5.2469,-0.408861,29.2848,7,0,0,0
0,1405000379,82000,-10.2225,31.8651,-17.2924,37.6684,-8.47513,-0.506062,3.78584,9.29605,2.07627,5.93851,-0.482706,29.2139,7,0,0,0
0,1405000380,83002,-10.1481,31.8583,-17.1802,37.5911,-8.44868,-0.498073,3.77979,9.26904,1.55064,6.18757,-2.23278,29.2423,6,0,0,0
0,1405000381,84008,-10.0862,31.569,-17.5319,37.4927,-8.48582,-0.53874,3.77619,9.30371,1.41978,5.92907,-2.32684,29.1756,7,0,0,0
0,1405000382,85015,-10.3909,31.823,-17.4247,37.7398,-8.49618,-0.457882,3.73886,9.29375,0.648607,5.38636,0.0121047,29.3371,6,0,0,0
0,1405000383,86021,-10.3639,31.4974,-17.3588,37.4276,-8.46058,-0.524242,3.79218,9.28638,1.59839,5.44373,-1.81695,29.3218,8,0,0,0
0,1405000384,87033,-10.4654,31.8365,-17.2871,37.7085,-8.47058,-0.48949,3.75919,9.28018,0.786421,5.61599,-0.873834,29.225,7,0,0,0
0,1405000385,88040,-10.2045,31.4167,-17.5776,37.418,-8.48163,-0.479259,3.76423,9.29178,1.0969,5.78742,-0.471165,29.2926,6,0,0,0
0,1405000386,89043,-10.4955,31.6838,-17.5056,37.6891,-8.47491,-0.506773,3.79616,9.30009,1.32082,6.10899,-2.22532,29.3435,7,0,0,0
0,1405000387,90049,-10.2984,31.6316,-17.172,37.4365,-8.46137,-0.544011,3.77556,9.28147,1.51281,4.77632,-1.36851,29.3608,6,0,0,0
0,1405000388,91051,-10.1487,31.7991,-17.6423,37.7549,-8.45486,-0.465573,3.79823,9.28051,1.58091,5.29004,-0.896765,29.3611,8,0,0,0
0,1405000389,92054,-10.1292,31.6914,-17.5813,37.6304,-8.47089,-0.497897,3.79237,9.2944,1.40392,4.98004,-1.76854,29.4293,7,0,0,0
0,1405000390,93061,-10.1624,31.8222,-17.2145,37.5801,-8.46204,-0.512146,3.78141,9.28264,0.937617,4.73434,-0.269293,29.5967,7,0,0,0
0,1405000391,94062,-10.1551,31.5622,-17.5931,37.5342,-8.48316,-0.467983,3.81441,9.31304,1.76265,5.19702,-1.51128,29.4604,7,0,0,0
0,1405000392,95074,-10.3853,31.7667,-17.2794,37.6238,-8.48909,-0.475794,3.81637,9.31964,1.7383,5.26975,-0.721,29.6156,7,0,0,0
0,1405000393,96081,-10.023,31.5381,-17.3908,37.3838,-8.4778,-0.510975,3.76182,9.289,0.698628,5.21805,-0.863446,29.5593,7,0,0,0
0,1405000394,97086,-10.3745,31.5842,-17.1887,37.4251,-8.46306,-0.507955,3.77581,9.28106,1.8498,5.75881,-1.42877,29.6244,7,0,0,0
0,1405000395,98089,-10.2735,31.3149,-17.3599,37.2496,-8.45757,-0.500755,3.7715,9.27391,1.60924,5.0928,-1.78894,29.68,7,0,0,0
0,1405000396,99091,-10.2679,31.5784,-17.3051,37.4446,-8.45634,-0.506667,3.76705,9.2713,1.00245,5.6076,-0.882225,29.629,8,0,0,0
0,1405000397,100099,-10.4193,31.5673,-17.377,37.5102,-8.45169,-0.476328,3.8035,9.28033,1.6951,5.29316,-0.20436,29.7793,8,0,0,0
0,1405000398,101103,-10.7884,31.697,-16.825,37.4723,-8.4393,-0.500941,3.82951,9.28105,3.27043,4.53722,-0.972413,29.7851,8,0,0,0
0,1405000399,102111,-10.6182,31.7309,-17.4468,37.7358,-8.43989,-0.402219,3.76358,9.24976,0.202036,5.84144,-1.87482,29.7558,6,0,0,0
0,1405000400,103112,-10.0254,31.7675,-17.0347,37.4148,-8.46794,-0.493148,3.78173,9.28712,1.07227,5.32482,-1.04723,29.8469,7,0,0,0
0,1405000401,104118,-10.4185,31.9516,-17.1645,37.7368,-8.44942,-0.4889,3.81274,9.28271,1.40614,6.14729,0.234802,29.792,7,0,0,0
0,1405000402,105125,-10.2073,31.3376,-17.5709,37.3493,-8.46954,-0.4858,3.79149,9.29217,1.23655,5.18036,-1.55195,29.9078,8,0,0,0
0,1405000403,106128,-10.2514,31.4571,-17.1706,37.2756,-8.46092,-0.472988,3.8144,9.29303,1.8773,5.21937,-0.678379,29.9466,7,0,0,0
0,1405000404,107134,-10.3896,31.3049,-17.3319,37.2604,-8.45431,-0.510611,3.75541,9.26495,1.62464,4.51367,-1.71254,30,6,0,0,0
0,1405000405,108142,-10.1883,31.3176,-17.3653,37.231,-8.43709,-0.470975,3.78554,9.25941,3.03014,4.8757,-1.12716,30.0308,7,0,0,0
0,1405000406,109148,-10.214,31.289,-17.4902,37.2724,-8.46945,-0.474769,3.77996,9.28682,3.13999,5.77328,-0.916532,30.0328,6,0,0,0
0,1405000407,110153,-10.1619,31.6186,-17.4055,37.496,-8.46568,-0.498293,3.80421,9.29452,2.67202,5.65036,-1.89193,30.0329,6,0,0,0
0,1405000408,111157,-10.1904,31.6245,-16.8796,37.2676,-8.47725,-0.49689,3.76224,9.2879,1.96977,4.0043,-1.1657,29.9975,7,0,0,0
0,1405000409,112159,-10.4515,31.7794,-17.6408,37.8201,-8.45862,-0.479345,3.78,9.2772,1.34685,4.30542,-1.41173,30.1469,7,0,0,0
0,1405000410,113164,-10.3502,31.5891,-17.3417,37.4931,-8.44951,-0.55166,3.76662,9.26746,2.30426,5.3858,-1.57121,30.1029,8,0,0,0
0,1405000412,115202,-10.5395,31.4942,-16.9362,37.2801,-8.46552,-0.510179,3.7956,9.2915,2.70497,3.37819,0.240515,30.0816,3,0,0,0
0,1405000413,116205,-10.119,31.5285,-17.4136,37.4122,-8.46668,-0.51706,3.77806,9.28579,0.66644,6.24393,-0.94078,29.9914,6,0,0,0
0,1405000414,117209,-10.4707,31.4906,-16.7446,37.1708,-8.45045,-0.507163,3.79202,9.27614,2.38041,5.65339,-1.46754,30.1275,7,0,0,0
0,1405000415,118217,-10.5303,31.7375,-17.5174,37.7494,-8.46322,-0.524413,3.76608,9.27818,2.82874,5.0799,-1.38642,30.1748,5,0,0,0
0,1405000416,119550,-10.3665,31.6293,-17.0227,37.3852,-8.45961,-0.502144,3.77859,9.27873,1.43403,5.26275,-0.210671,30.3608,4,0,0,0
0,1405000417,120557,-10.3641,31.8201,-17.2445,37.6471,-8.43912,-0.516101,3.77403,9.25896,2.75949,5.95788,-1.10917,30.3122,7,0,0,0
0,1405000418,121567,-10.203,31.677,-17.533,37.6157,-8.43863,-0.513537,3.8199,9.27717,2.05407,3.74511,-0.972714,30.3502,7,0,0,0
0,1405000419,122572,-10.2699,31.3163,-17.1309,37.1437,-8.46967,-0.518116,3.78238,9.29033,2.06929,4.3183,-0.330281,30.4343,6,0,0,0
0,1405000420,123578,-10.4859,31.8721,-17.1201,37.668,-8.47676,-0.544822,3.75787,9.28837,2.88266,5.37426,-2.40624,30.5136,7,0,0,0
0,1405000421,124589,-10.5723,31.4862,-17.196,37.4013,-8.46556,-0.503223,3.79486,9.29085,2.40931,5.87247,-1.25258,30.4722,7,0,0,0
0,1405000422,125592,-10.5211,31.6375,-17.3339,37.5778,-8.44818,-0.450294,3.75171,9.25472,0.757771,4.56425,-1.33258,30.5083,7,0,0,0
0,1405000423,126595,-10.2341,31.621,-17.3429,37.4887,-8.48424,-0.55244,3.78778,9.30778,1.68535,4.99056,-1.24445,30.4831,7,0,0,0
0,1405000424,127596,-10.4554,32.2945,-17.2979,38.0981,-8.46506,-0.463651,3.7663,9.27671,2.17138,5.39027,-1.62468,30.4677,6,0,0,0
0,1405000425,128599,-10.4071,31.3662,-17.761,37.518,-8.45606,-0.511076,3.76809,9.27171,0.621207,5.58659,-0.99592,30.5643,7,0,0,0
0,1405000427,130423,-10.2369,31.4327,-17.2448,37.2853,-8.46792,-0.482519,3.79048,9.29012,2.35024,5.73912,-1.62885,30.5381,7,0,0,0
0,1405000428,131429,-10.4093,31.7756,-17.3823,37.6853,-8.45425,-0.527378,3.79145,9.2805,0.376115,5.87359,-0.671468,30.6701,7,0,0,0
0,1405000429,132435,-10.588,31.6112,-17.4444,37.6255,-8.44904,-0.486655,3.8158,9.2835,2.11345,5.41762,-1.45467,30.6483,7,0,0,0
0,1405000430,133448,-10.0711,31.7825,-17.1247,37.4808,-8.46335,-0.564397,3.77531,9.28438,0.349997,5.78347,-1.34407,30.7616,7,0,0,0
0,1405000431,134454,-10.4301,31.8544,-16.9376,37.5549,-8.46441,-0.503426,3.80479,9.29388,2.38898,4.80438,-1.50841,30.764,8,0,0,0
0,1405000432,135462,-10.469,31.3733,-17.2404,37.2977,-8.44765,-0.509857,3.78182,9.26957,1.41314,4.78251,-1.78702,30.805,7,0,0,0
0,1405000433,136469,-10.6495,31.5881,-17.2764,37.5459,-8.46172,-0.517905,3.76142,9.27455,0.918613,4.11598,-1.7599,30.8349,7,0,0,0
0,1405000434,137476,-10.1982,31.8436,-17.3145,37.6538,-8.46083,-0.485562,3.75374,9.26887,2.5589,6.33109,-1.87057,30.8164,8,0,0,0
0,1405000435,138482,-10.2283,31.6232,-17.3018,37.4699,-8.48414,-0.523414,3.76282,9.29588,1.84788,5.60079,-1.03633,30.8451,7,0,0,0
0,1405000436,139489,-10.4226,31.3857,-17.1267,37.2427,-8.46686,-0.476248,3.764,9.27806,1.56397,6.11644,-2.74023,30.9451,7,0,0,0
0,1405000437,140492,-10.5316,31.477,-17.5691,37.5551,-8.48794,-0.505011,3.79531,9.31153,1.86722,5.40647,-2.48849,30.9673,6,0,0,0
0,1405000438,141493,-10.5039,31.5886,-17.5312,37.6233,-8.45302,-0.437781,3.80351,9.27965,2.30909,5.20855,-1.77414,30.9133,6,0,0,0
0,1405000439,142497,-10.0301,31.5294,-17.4796,37.4198,-8.46479,-0.5156,3.80827,9.29631,0.766229,5.06209,-0.925076,30.8788,7,0,0,0
0,1405000440,143501,-10.3948,31.4643,-17.2632,37.364,-8.46234,-0.480744,3.8371,9.30407,1.32672,6.25217,-2.87051,30.8311,6,0,0,0
0,1405000441,144508,-10.1687,31.4969,-17.5347,37.4556,-8.48383,-0.471467,3.7768,9.29849,1.56713,5.34657,-1.79818,30.9468,7,0,0,0
0,1405000442,145509,-10.1554,31.8559,-17.1863,37.5939,-8.44168,-0.494578,3.78544,9.26478,0.514222,5.29368,-1.66605,30.94,7,0,0,0
0,1405000443,146521,-10.224,31.5844,-16.8831,37.2444,-8.43927,-0.528243,3.79155,9.26695,2.59845,6.11432,-1.90791,30.9474,7,0,0,0
0,1405000444,147524,-10.0154,31.2953,-17.3816,37.1729,-8.44025,-0.458258,3.79407,9.26514,1.20363,4.95082,-0.274307,30.9746,6,0,0,0
0,1405000445,148528,-10.1696,31.2497,-16.8734,36.9415,-8.46142,-0.493469,3.77201,9.27724,2.51815,5.59008,-0.130489,31.054,6,0,0,0
0,1405000446,149535,-10.2677,31.5577,-17.1019,37.3335,-8.481,-0.459959,3.77058,9.29281,0.279261,6.27297,-1.7224,31.1153,7,0,0,0
0,1405000447,150543,-10.1931,31.5688,-17.0212,37.2855,-8.45359,-0.47824,3.85977,9.30536,1.49518,5.72309,-1.73628,31.0505,8,0,0,0
0,1405000448,151545,-10.3646,31.4683,-17.019,37.2468,-8.45867,-0.486077,3.81393,9.29147,1.26457,6.00126,-0.124653,31.1315,7,0,0,0
0,1405000449,152547,-10.4277,31.587,-17.3409,37.5125,-8.46095,-0.530062,3.78051,9.28229,2.0084,6.58344,-1.48743,31.141,6,0,0,0
0,1405000450,153550,-10.1928,31.3397,-16.9508,37.0595,-8.44726,-0.509392,3.76553,9.26255,2.26816,4.81953,-1.49564,31.1666,7,0,0,0
0,1405000451,154851,-10.1229,31.3249,-17.0129,37.0562,-8.4684,-0.507858,3.75589,9.27785,0.220559,6.05136,-0.624859,31.1637,5,0,0,0
0,1405000452,155855,-10.2598,31.2255,-17.1341,37.0658,-8.45896,-0.492594,3.77185,9.27489,2.90258,6.42485,-2.25284,31.2094,6,0,0,0
0,1405000453,156858,-10.2914,31.2839,-17.1935,37.1512,-8.46692,-0.504917,3.77992,9.28609,2.60188,5.1349,-1.71046,31.2784,7,0,0,0
0,1405000454,157861,-10.4211,30.9317,-17.3456,36.9627,-8.48367,-0.486389,3.76529,9.29444,1.05397,5.38183,-1.21777,31.3331,7,0,0,0
0,1405000455,158870,-10.7149,31.2216,-17.3407,37.2867,-8.47194,-0.511483,3.77408,9.28866,2.303,6.13451,-1.51052,31.3742,7,0,0,0
0,1405000456,159871,-10.361,31.3319,-17.1903,37.2094,-8.45362,-0.503758,3.76791,9.26902,2.41293,6.05722,-2.16555,31.2656,7,0,0,0
0,1405000457,160878,-10.4495,31.2728,-17.3911,37.2778,-8.47679,-0.500465,3.77753,9.29388,3.36912,5.6083,-1.7277,31.4102,6,0,0,0
0,1405000458,161887,-10.5507,31.2232,-17.2096,37.1804,-8.44233,-0.506933,3.77521,9.26187,1.09213,5.76273,-1.3162,31.3819,7,0,0,0
0,1405000459,162895,-10.3404,31.2649,-17.5396,37.3103,-8.46919,-0.497624,3.78296,9.28901,2.6372,4.96346,-1.13608,31.4502,7,0,0,0
0,1405000460,163907,-10.1968,31.3552,-17.7276,37.4352,-8.48465,-0.49008,3.80759,9.31274,0.972074,4.93169,-2.24463,31.3165,7,0,0,0
0,1405000461,164914,-10.4545,31.549,-17.4377,37.5328,-8.46082,-0.485778,3.77193,9.27626,2.27554,6.36353,-1.34953,31.4994,6,0,0,0
0,1405000462,165919,-10.0331,31.4877,-17.2971,37.3005,-8.46464,-0.484501,3.79977,9.29103,1.62432,6.1016,0.925533,31.4848,7,0,0,0
0,1405000463,166926,-9.89284,31.0127,-17.5077,36.9619,-8.4681,-0.515386,3.81825,9.30341,0.674099,4.98077,-1.24959,31.5114,6,0,0,0
0,1405000464,167933,-10.1644,31.7172,-17.2621,37.5137,-8.46419,-0.508822,3.78985,9.28786,1.47815,6.52252,-0.941844,31.5554,6,0,0,0
0,1405000465,168938,-10.3384,31.8177,-17.3835,37.7019,-8.46255,-0.503794,3.81123,9.29484,0.994397,5.14559,-1.32918,31.3821,8,0,0,0
0,1405000466,169943,-10.0482,31.5182,-17.1966,37.2838,-8.48648,-0.503606,3.77869,9.30336,1.48952,5.1649,-1.24772,31.5322,7,0,0,0
0,1405000467,170946,-10.0451,31.1066,-16.5737,36.6498,-8.4685,-0.502079,3.79105,9.29191,-0.973834,6.21961,-0.980383,31.4987,6,0,0,0
0,1405000468,171954,-10.1793,31.3364,-16.7178,36.9469,-8.47333,-0.491478,3.78475,9.29318,3.07016,4.31406,-1.75336,31.5235,6,0,0,0
0,1405000469,172960,-10.1489,31.4036,-17.2397,37.2343,-8.46042,-0.521923,3.76925,9.27676,2.99091,4.71997,-1.40504,31.6352,7,0,0,0
0,1405000470,173973,-10.4068,31.4903,-17.5587,37.5266,-8.45095,-0.500459,3.78694,9.27415,1.00776,5.6126,-0.516971,31.6085,7,0,0,0
0,1405000471,174975,-9.99387,31.5246,-17.2381,37.2938,-8.46208,-0.502824,3.81135,9.2944,2.11218,5.65884,-0.743456,31.5464,7,0,0,0
0,1405000472,175981,-10.0695,31.2912,-17.234,37.1153,-8.46034,-0.50939,3.77839,9.27972,2.20182,4.44724,-1.18505,31.8203,8,0,0,0
0,1405000473,176983,-10.0687,31.4116,-16.7869,37.0118,-8.46558,-0.475602,3.81467,9.29752,0.731331,5.4028,-1.35721,31.7591,7,0,0,0
0,1405000474,177994,-10.3624,31.0674,-17.1144,36.9522,-8.46053,-0.489003,3.7572,9.27018,-0.130448,6.02052,-1.80134,31.606,7,0,0,0
0,1405000475,178996,-10.3029,31.4687,-16.7662,37.1152,-8.45825,-0.510519,3.79341,9.28399,3.06322,5.73351,-0.363107,31.7916,6,0,0,0
0,1405000476,179997,-10.3183,31.8869,-17.4148,37.7693,-8.4707,-0.499641,3.76684,9.28394,2.27043,5.48207,-0.969068,31.6793,7,0,0,0
0,1405000477,180999,-10.0194,31.5427,-17.6412,37.5039,-8.44759,-0.498535,3.76776,9.26317,0.930131,4.9811,-1.47874,31.7686,7,0,0,0
0,1405000479,182004,-10.0662,31.4504,-17.4228,37.3365,-8.4581,-0.507765,3.78865,9.28176,1.53896,6.97905,-1.26138,31.7028,6,0,0,0
0,1405000480,183012,-10.7404,31.7744,-17.1002,37.6482,-8.46829,-0.497102,3.77001,9.28289,1.69148,6.01731,-0.743818,31.7451,7,0,0,0
0,1405000481,184015,-10.3055,31.6019,-17.5286,37.5784,-8.45314,-0.504855,3.75837,9.26476,0.847336,6.19842,-2.07275,31.7401,7,0,0,0
0,1405000482,185029,-10.438,31.5845,-17.414,37.547,-8.47064,-0.491626,3.80003,9.29697,0.845036,5.54338,-1.86659,31.8183,6,0,0,0
0,1405000483,186035,-9.96315,31.1547,-17.3387,37.0204,-8.43901,-0.532006,3.79797,9.26955,1.65515,4.78415,-0.877233,31.9209,5,0,0,0
0,1405000484,187043,-10.5512,31.5635,-17.0622,37.3992,-8.46713,-0.486946,3.78891,9.28898,2.56129,5.95885,-1.73768,31.9413,6,0,0,0
0,1405000485,188046,-10.2684,31.5347,-16.9056,37.2247,-8.45901,-0.499514,3.76387,9.27206,2.91763,4.17261,-2.15244,31.9606,5,0,0,0
0,1405000486,189056,-10.1298,31.6191,-16.9716,37.2883,-8.44049,-0.557642,3.79406,9.2708,1.42238,5.5544,-2.25277,31.9475,5,0,0,0
0,1405000487,190061,-10.0106,31.6728,-17.3244,37.4635,-8.45389,-0.462142,3.75576,9.26216,2.02991,5.51887,-2.62567,31.8546,7,0,0,0
0,1405000488,191065,-10.2386,32.1066,-17.2986,37.8801,-8.44795,-0.532356,3.77689,9.2691,1.98464,4.95636,-1.82227,31.8945,7,0,0,0
0,1405000489,192066,-10.1526,31.3861,-17.1698,37.1883,-8.45809,-0.563432,3.79791,9.28875,1.18116,6.10315,-1.3434,32.0086,7,0,0,0
0,1405000490,193078,-10.0914,31.786,-17.1566,37.5037,-8.48049,-0.479457,3.74094,9.28134,1.26947,5.31882,-1.32818,31.9542,6,0,0,0
0,1405000491,194080,-10.1359,31.2518,-16.817,36.9083,-8.45904,-0.487275,3.82264,9.29545,1.03178,5.87405,-1.89419,32.1163,7,0,0,0
0,1405000492,195092,-10.2711,31.4495,-16.8204,37.1146,-8.4351,-0.480568,3.81046,9.26831,2.06861,4.56777,-1.37683,32.1468,7,0,0,0
0,1405000493,196096,-10.3519,31.4883,-17.0979,37.2962,-8.44515,-0.487023,3.80352,9.27495,-0.183796,6.98688,-1.66089,32.1592,6,0,0,0
0,1405000494,197099,-10.1395,31.3381,-16.6233,36.8948,-8.45814,-0.481204,3.78608,9.27933,1.78991,5.74699,-1.5675,32.2162,7,0,0,0
0,1405000495,198107,-10.2333,31.5594,-17.4919,37.5058,-8.46869,-0.495455,3.80409,9.29706,1.14552,6.42933,-1.02823,32.1825,7,0,0,0
0,1405000496,199112,-10.0975,31.4518,-17.1086,37.2005,-8.4559,-0.502906,3.79857,9.28355,3.59968,5.78004,-1.07786,32.2699,6,0,0,0
0,1405000497,200118,-9.97815,31.495,-16.6625,37.0019,-8.46361,-0.500846,3.79336,9.28833,2.23053,4.69882,-2.4797,32.2435,7,0,0,0
0,1405000498,201125,-10.0754,31.4313,-17.4304,37.3264,-8.46898,-0.501842,3.78864,9.29135,0.635522,6.10015,-1.95108,32.4486,7,0,0,0
0,1405000499,202131,-10.0522,31.5888,-17.0332,37.2696,-8.45633,-0.502946,3.79147,9.28103,2.37628,5.74825,-2.75768,32.4499,7,0,0,0
0,1405000500,203139,-10.1727,31.4135,-17.2149,37.2377,-8.47584,-0.503665,3.77296,9.29133,1.05262,6.1539,-1.14042,32.4201,7,0,0,0
0,1405000501,204145,-9.79053,31.1237,-17.2146,36.8901,-8.44535,-0.532371,3.79034,9.27222,1.39002,4.79146,-2.94105,32.5151,7,0,0,0
0,1405000502,205152,-9.99476,31.2234,-17.4602,37.1437,-8.446,-0.53334,3.79262,9.2738,1.50232,5.38928,-0.556013,32.4936,7,0,0,0
0,1405000503,206153,-10.0342,31.4653,-17.2591,37.2643,-8.43645,-0.489514,3.84348,9.28362,0.593613,6.28753,-0.989927,32.4963,7,0,0,0
0,1405000504,207154,-10.1443,31.7636,-17.4885,37.6521,-8.44259,-0.492698,3.78799,9.26655,0.800956,7.6387,-1.92661,32.5529,7,0,0,0
0,1405000505,208160,-10.3666,31.2794,-17.2358,37.1878,-8.51228,-0.484253,3.70559,9.2965,0.768818,5.4046,-1.22363,32.607,6,0,0,0
0,1405000506,209162,-10.4254,31.163,-17.0117,37.0029,-8.47312,-0.53757,3.80138,9.30233,1.82476,6.33921,-0.436837,32.6512,5,0,0,0
0,1405000507,210166,-10.3701,31.8622,-16.9911,37.5691,-8.4258,-0.470465,3.84686,9.27436,2.69248,5.96766,-1.33431,32.618,6,0,0,0
0,1405000508,211168,-10.364,31.6864,-17.2837,37.5522,-8.44549,-0.510725,3.77065,9.2631,2.77947,4.80486,-2.34646,32.5426,7,0,0,0
0,1405000509,212174,-10.2816,31.4953,-17.133,37.2989,-8.4734,-0.510032,3.79583,9.29877,2.96899,4.89005,-0.807509,32.6857,7,0,0,0
0,1405000510,213183,-10.367,31.5013,-16.6797,37.1217,-8.46454,-0.504769,3.78916,9.28768,0.850431,6.36127,-2.0658,32.7349,7,0,0,0
0,1405000511,214188,-10.0135,31.3109,-16.7623,36.9001,-8.44753,-0.498214,3.78153,9.26871,0.726594,6.15131,-0.6497,32.7446,6,0,0,0
0,1405000512,215195,-9.89742,31.5093,-17.2088,37.2416,-8.455,-0.495449,3.78659,9.27743,1.05159,5.59807,-1.4447,32.7348,8,0,0,0
0,1405000513,216204,-10.0664,31.4829,-17.4653,37.3837,-8.44549,-0.491876,3.77688,9.26461,1.12954,5.98536,-1.0203,32.7598,6,0,0,0
0,1405000514,217209,-10.1165,31.0635,-17.3777,37.0037,-8.44488,-0.475999,3.76978,9.26033,-0.591271,5.69905,-2.4054,32.8457,7,0,0,0
0,1405000515,218214,-10.1346,31.3985,-16.9451,37.0906,-8.46883,-0.505918,3.79185,9.29275,1.04588,4.92664,-1.38004,32.8594,7,0,0,0
0,1405000516,219215,-10.366,31.9696,-17.394,37.8426,-8.46614,-0.502249,3.7637,9.27865,2.956,6.10908,-0.989025,32.8852,7,0,0,0
0,1405000517,220217,-10.5265,31.5489,-16.6678,37.2016,-8.41923,-0.509681,3.79698,9.24988,0.428418,6.93813,-1.24806,32.8737,7,0,0,0
0,1405000518,221226,-10.0081,31.289,-16.9213,36.9526,-8.46669,-0.509333,3.80031,9.29444,0.581536,5.31146,-1.96333,32.88,6,0,0,0
0,1405000519,222232,-10.276,31.351,-17.025,37.1259,-8.44057,-0.507107,3.77455,9.26001,0.786179,5.22588,-2.10251,33.0508,7,0,0,0
0,1405000520,223236,-9.97535,31.2957,-17.0007,36.9859,-8.44738,-0.502754,3.78328,9.26953,0.876383,6.6408,-1.02252,32.9362,6,0,0,0
0,1405000521,224245,-10.1693,31.1881,-17.3039,37.0883,-8.46975,-0.508172,3.79369,9.29446,2.18689,5.24158,-2.61206,32.8703,7,0,0,0
0,1405000522,225248,-10.1666,31.4099,-17.0886,37.1748,-8.46348,-0.50333,3.7897,9.28685,0.673064,5.69326,-1.8669,32.9899,7,0,0,0
0,1405000523,226251,-10.3309,31.8845,-16.9857,37.5748,-8.43729,-0.491887,3.7893,9.26221,1.15623,6.30194,-1.80226,32.9837,7,0,0,0
0,1405000524,227258,-9.8395,31.2212,-16.8602,36.8218,-8.43944,-0.498781,3.7898,9.26474,1.85403,5.6144,-2.2363,32.9765,7,0,0,0
0,1405000525,228262,-10.3297,31.7132,-16.9706,37.4224,-8.44786,-0.503858,3.81499,9.28301,2.34613,5.41108,-1.64931,33.0094,6,0,0,0
0,1405000526,229264,-10.0318,31.2037,-17.0025,36.9241,-8.43631,-0.489456,3.79732,9.26448,2.38291,5.35396,-0.64245,32.9742,7,0,0,0
0,1405000527,230266,-10.0041,31.203,-17.3445,37.0748,-8.45889,-0.497242,3.79135,9.28302,3.38839,4.7024,-1.40398,33.0085,6,0,0,0
0,1405000528,231272,-10.297,31.3465,-17.1841,37.2011,-8.43924,-0.505566,3.79355,9.26647,1.27459,6.70147,-1.40673,33.1931,6,0,0,0
0,1405000529,232280,-10.0202,31.6276,-16.8165,37.1954,-8.43946,-0.511187,3.80794,9.27288,0.227946,6.02141,-0.974917,33.1704,6,0,0,0
0,1405000530,233288,-10.4919,31.5756,-17.1558,37.4356,-8.49201,-0.457548,3.80636,9.31729,3.55511,5.08648,-1.32706,33.1598,6,0,0,0
0,1405000531,234299,-10.0983,31.404,-16.8883,37.0594,-8.45989,-0.500495,3.79442,9.28536,1.74719,5.83534,-1.37933,33.1019,6,0,0,0
0,1405000532,235303,-10.3605,31.6773,-17.0431,37.4333,-8.45838,-0.483436,3.80644,9.28799,0.684632,6.20406,-2.28724,33.068,5,0,0,0
0,1405000533,236306,-9.80147,31.3556,-17.2952,37.1263,-8.43764,-0.493894,3.79825,9.2663,1.02147,6.10301,-0.424188,33.1535,7,0,0,0
0,1405000534,237314,-10.2707,31.4154,-17.0317,37.1819,-8.44314,-0.505328,3.77373,9.26191,1.60719,6.87612,-1.39948,33.1443,6,0,0,0
0,1405000535,238320,-9.98677,31.4782,-17.1947,37.2326,-8.43684,-0.49609,3.80322,9.26774,2.13996,6.01989,-1.70326,33.1492,7,0,0,0
0,1405000536,239330,-10.166,31.3625,-17.2345,37.2019,-8.46227,-0.490288,3.80242,9.29025,2.64098,5.06932,-0.15995,33.3373,7,0,0,0
0,1405000537,240333,-10.5695,31.4013,-17.3698,37.4094,-8.44279,-0.475814,3.77632,9.26109,1.27119,6.9943,-1.6967,33.322,8,0,0,0
0,1405000538,241337,-10.7869,31.0649,-16.7904,36.9229,-8.47801,-0.47378,3.76484,9.28844,2.39237,6.03173,-0.974495,33.1124,9,0,0,0
0,1405000539,242340,-10.1091,31.1934,-17.0445,36.9558,-8.46571,-0.524779,3.81347,9.2998,2.33628,5.80855,-0.636639,33.0787,12,0,0,0
0,1405000540,243345,-10.2846,31.002,-17.0917,36.8649,-8.40289,-0.509508,3.86627,9.2637,2.92351,6.23371,-1.04681,33.1653,10,0,0,0
0,1405000541,244350,-10.3244,31.5625,-17.2546,37.4233,-8.39903,-0.56393,3.92767,9.28915,0.937865,5.2453,-1.70895,33.2051,11,0,0,0
0,1405000542,245355,-10.5613,31.9437,-17.1212,37.7502,-8.52458,-0.535312,3.80198,9.34934,2.22894,4.98184,-1.49575,33.2747,12,0,0,0
0,1405000543,246356,-10.4107,31.256,-17.2433,37.184,-8.8109,-0.334996,3.85005,9.62118,1.2887,8.58786,-0.332405,33.1503,11,0,0,0
0,1405000544,247361,-10.5766,31.5321,-16.408,37.0859,-8.43944,-0.444713,3.82078,9.27471,1.76995,5.97347,-0.443709,33.1829,10,0,0,0
0,1405000545,248367,-10.3579,31.3198,-16.7785,37.0099,-8.5084,-0.605575,3.72797,9.30899,1.39672,6.74218,-1.95138,33.1469,12,0,0,0
0,1405000546,249374,-10.4042,31.1285,-16.3762,36.6798,-8.48368,-0.357356,3.81802,9.31009,1.41339,5.2294,-2.34426,33.0995,11,0,0,0
0,1405000547,250379,-10.9246,31.0565,-17.3524,37.215,-8.45974,-0.519001,3.79135,9.28498,1.4969,5.45454,-1.85608,33.1496,10,0,0,0
0,1405000548,251384,-10.0971,30.8245,-16.9242,36.5859,-8.47466,-0.489422,3.77471,9.2902,0.900434,6.18147,-1.69557,33.0751,11,0,0,0
0,1405000549,252387,-10.7109,31.6874,-16.8376,37.4476,-8.47084,-0.494449,3.83348,9.31102,1.84496,4.87459,-1.97044,33.1098,11,0,0,0
0,1405000550,253392,-10.5037,31.0827,-17.4037,37.1396,-8.44345,-0.473802,3.82234,9.28044,1.94648,5.35099,-1.35153,33.118,10,0,0,0
0,1405000551,254394,-10.3667,31.0915,-17.4152,37.1138,-8.4628,-0.488549,3.79123,9.28607,2.02653,4.70332,-2.31154,33.1566,11,0,0,0
0,1405000552,255396,-10.2886,30.8061,-16.981,36.65,-8.45719,-0.497622,3.77765,9.2759,1.54218,5.19598,-2.14711,33.2613,11,0,0,0
0,1405000553,256400,-10.6125,31.0682,-16.6919,36.8304,-8.44878,-0.493903,3.81507,9.28335,1.8492,5.19611,-1.0869,33.1068,11,0,0,0
0,1405000554,257405,-11.3307,31.4137,-16.6281,37.3054,-8.4585,-0.478543,3.79168,9.28181,1.47818,6.13325,-0.00302838,33.0244,11,0,0,0
0,1405000555,258407,-10.4422,31.3206,-17.5609,37.3953,-8.43189,-0.495708,3.82762,9.27325,1.6344,6.23853,-0.853414,33.0811,10,0,0,0
0,1405000556,259411,-10.2753,30.9872,-17.2571,36.9269,-8.44825,-0.500756,3.76952,9.26461,1.22225,6.18397,-1.81306,33.1903,11,0,0,0
0,1405000557,260413,-10.39,31.2267,-16.7538,36.929,-8.46783,-0.484746,3.77401,9.28344,2.03125,5.9728,-1.48159,33.0869,9,0,0,0
0,1405000558,261415,-10.1387,31.6065,-17.2685,37.4161,-8.44969,-0.501673,3.7657,9.26442,1.42066,5.88881,-2.10127,33.1536,11,0,0,0
0,1405000559,262418,-10.7826,31.709,-17.3431,37.7162,-8.47088,-0.550817,3.79305,9.29766,1.42181,4.81302,-2.34772,33.0977,11,0,0,0
0,1405000560,263419,-10.5806,31.3468,-16.4061,36.9287,-8.47152,-0.514634,3.76337,9.2841,1.42966,6.34381,-0.801181,33.3047,11,0,0,0
0,1405000561,264422,-10.3653,31.4669,-16.9826,37.2292,-8.47601,-0.480165,3.7925,9.29819,1.43076,5.43315,-2.06362,33.3271,10,0,0,0
0,1405000562,265424,-10.3703,30.9139,-17.1489,36.8415,-8.45011,-0.50696,3.79079,9.27532,1.39816,6.12231,-0.847957,33.3719,9,0,0,0
0,1405000563,266430,-10.3038,30.931,-17.1489,36.8372,-8.45531,-0.49245,3.77084,9.27114,1.85181,6.37031,-0.934781,33.3518,11,0,0,0
0,1405000564,267431,-10.837,31.3774,-16.5362,37.0868,-8.44644,-0.546896,3.79473,9.27585,2.04844,5.63465,-1.74602,33.4852,10,0,0,0
0,1405000565,268435,-10.1656,30.9466,-17.0392,36.761,-8.46577,-0.466607,3.77929,9.28279,1.23743,5.69716,-2.36158,33.5381,11,0,0,0
0,1405000566,269438,-10.7368,31.5169,-17.8335,37.7707,-8.46252,-0.433924,3.7938,9.28415,1.49608,5.88952,-0.757902,33.5328,10,0,0,0
0,1405000567,270444,-10.3348,31.1613,-16.7169,36.8415,-8.44281,-0.493336,3.74826,9.25061,1.03541,6.411,-1.12599,33.6226,11,0,0,0
0,1405000568,271446,-10.7704,30.377,-16.9377,36.4095,-8.42648,-0.486849,3.80995,9.26058,0.773169,6.43622,-2.67512,33.5946,11,0,0,0
0,1405000569,272447,-10.2909,30.8247,-17.0452,36.6961,-8.43575,-0.362688,3.83937,9.27546,2.03034,5.68583,-1.91377,33.5903,11,0,0,0
0,1405000570,273452,-10.3333,31.5332,-17.3449,37.4429,-8.43397,-0.55308,3.79787,9.26615,0.979722,7.39144,-2.0817,33.6429,11,0,0,0
0,1405000571,274453,-10.4021,31.1893,-17.033,37.0284,-8.45716,-0.538615,3.75877,9.2705,1.80687,7.14643,-1.17925,33.6293,10,0,0,0
0,1405000572,275454,-10.4789,31.2062,-17.2916,37.1838,-8.46172,-0.445346,3.79023,9.28251,2.15832,6.7648,-1.83235,33.6844,10,0,0,0
0,1405000573,276459,-10.7127,31.0095,-17.3419,37.1092,-8.44035,-0.521981,3.80435,9.27281,1.24639,5.32396,-1.41125,33.7413,11,0,0,0
0,1405000574,277462,-10.1751,31.0856,-17.21,36.9599,-8.43748,-0.523037,3.87297,9.29863,0.6009,5.93241,0.26986,33.7809,11,0,0,0
0,1405000575,278469,-10.3436,31.0758,-17.0363,36.9179,-8.4217,-0.515419,3.80621,9.25624,1.69915,6.4947,-1.29998,33.7181,10,0,0,0
0,1405000576,279471,-10.6521,31.6683,-17.4217,37.6811,-8.44941,-0.52383,3.83964,9.29569,2.12264,4.71666,-1.71575,33.8143,12,0,0,0
0,1405000577,280481,-10.7042,31.6864,-17.0272,37.5304,-8.42776,-0.481202,3.79164,9.25393,2.40762,7.14586,-2.43593,33.8425,12,0,0,0
0,1405000578,281484,-10.2689,31.2981,-17.056,37.0935,-8.45996,-0.483963,3.83104,9.29956,1.42927,7.10921,-0.624307,33.9055,11,0,0,0
0,1405000579,282489,-10.2625,30.9145,-16.9846,36.7355,-8.45818,-0.505462,3.79494,9.28428,1.01201,5.99665,-1.38456,33.8506,12,0,0,0
0,1405000580,283494,-10.5242,31.3053,-17.2825,37.2755,-8.42994,-0.510151,3.8126,9.26607,0.599599,6.26985,-1.34571,33.9822,11,0,0,0
0,1405000581,284495,-11.0601,31.3564,-17.1522,37.4132,-8.44107,-0.451741,3.77964,9.25967,2.22975,5.7987,-0.733296,33.9931,11,0,0,0
0,1405000582,285498,-10.401,30.475,-16.491,36.1782,-8.4423,-0.45142,3.80797,9.27237,1.53215,6.77218,-2.44176,33.9319,11,0,0,0
0,1405000583,286503,-10.2817,31.212,-16.7155,36.8689,-8.47073,-0.469931,3.76669,9.28235,2.03971,5.45083,-2.21893,34.022,11,0,0,0
0,1405000584,287505,-10.4631,31.3675,-17.243,37.2924,-8.46189,-0.483162,3.8393,9.30469,2.45974,6.62067,-1.90977,34.0332,10,0,0,0
0,1405000585,288510,-10.9077,31.4934,-16.5939,37.2313,-8.43482,-0.537454,3.78322,9.26001,2.2521,4.75201,-0.901034,34.0396,11,0,0,0
0,1405000586,289512,-10.0352,30.8136,-16.6285,36.4238,-8.43216,-0.349103,3.78884,9.25086,1.70286,6.53253,-3.12364,34.0663,11,0,0,0
0,1405000587,290521,-10.3656,31.2824,-17.3281,37.233,-8.42328,-0.479779,3.79078,9.24943,1.76558,5.48596,-1.60462,34.0808,11,0,0,0
0,1405000588,291522,-10.1491,30.7713,-17.2479,36.7064,-8.46431,-0.477229,3.82105,9.29907,1.28051,6.83,-1.24768,34.1984,11,0,0,0
0,1405000589,292523,-10.7416,31.6239,-17.5048,37.7078,-8.4544,-0.516906,3.80956,9.28745,0.856936,7.0507,-1.03968,34.1494,10,0,0,0
0,1405000590,293527,-10.2283,30.919,-17.0788,36.7734,-8.44581,-0.523099,3.77629,9.26638,1.52084,6.87388,-0.468239,34.0791,10,0,0,0
0,1405000591,294530,-10.5609,31.4161,-16.9871,37.2433,-8.45518,-0.526135,3.79128,9.2812,2.18515,6.51047,-1.90869,34.1833,11,0,0,0
0,1405000592,295537,-10.3152,30.9661,-16.8615,36.7371,-8.43384,-0.499742,3.7864,9.2583,0.98713,5.39803,-1.72192,34.1183,10,0,0,0
0,1405000593,296538,-10.7235,30.9911,-16.6326,36.7707,-8.48157,-0.499631,3.82343,9.31694,2.28589,5.66536,-2.29693,34.1968,10,0,0,0
0,1405000594,297541,-10.2083,30.9202,-17.0427,36.7521,-8.42963,-0.550534,3.79171,9.25952,1.40138,6.48244,-1.78492,34.1732,10,0,0,0
0,1405000595,298545,-10.6243,31.8128,-16.8041,37.5141,-8.43784,-0.559918,3.82479,9.28114,1.6584,5.64519,-2.03598,34.2294,11,0,0,0
0,1405000596,299546,-10.597,31.3931,-17.0257,37.2519,-8.51592,-0.428158,3.69568,9.29313,2.77318,5.71771,-2.46806,34.3071,11,0,0,0
0,1405000597,300547,-10.4159,31.0436,-16.8076,36.8061,-8.42125,-0.536286,3.85248,9.27614,2.14362,6.37842,-1.27382,34.1215,10,0,0,0
0,1405000598,301549,-10.8117,31.6844,-17.1492,37.615,-8.47772,-0.546906,3.80677,9.30926,1.70003,4.94588,-2.25785,34.2397,10,0,0,0
0,1405000599,302551,-10.57,31.0568,-16.5774,36.7568,-8.48876,-0.504291,3.74199,9.29063,1.60371,5.76855,-0.845245,34.3408,11,0,0,0
0,1405000600,303554,-10.6871,30.9399,-16.4666,36.642,-8.44186,-0.540347,3.77806,9.26449,1.53927,5.06348,-1.1904,34.3103,10,0,0,0
0,1405000601,304557,-10.1331,31.0711,-16.4149,36.5724,-8.44956,-0.472623,3.7835,9.27002,2.42944,6.73017,-1.35717,34.3065,11,0,0,0
0,1405000602,305561,-10.2789,31.1481,-17.1041,36.9921,-8.50131,-0.505601,3.73937,9.30112,1.16483,6.23825,-1.82019,34.2438,11,0,0,0
0,1405000603,306565,-9.97655,30.9181,-17.2352,36.7766,-8.47961,-0.523204,3.75051,9.28676,1.82889,6.62732,-1.86898,34.3199,11,0,0,0
0,1405000604,307570,-10.2557,31.241,-17.3093,37.159,-8.45402,-0.523014,3.73951,9.25893,1.76568,6.52839,-2.1476,34.3361,10,0,0,0
0,1405000605,308571,-10.2871,30.7121,-16.8253,36.4987,-8.47678,-0.503504,3.69787,9.26194,1.84549,6.48443,-0.994741,34.3623,10,0,0,0
0,1405000606,309574,-10.9368,31.5545,-17.2471,37.5867,-8.43819,-0.512443,3.76489,9.25419,1.97431,6.76991,-0.123316,34.2596,11,0,0,0
0,1405000607,310576,-10.2297,30.791,-17.1688,36.7083,-8.45705,-0.514887,3.81274,9.29106,1.74399,6.61581,-1.05594,34.4249,10,0,0,0
0,1405000608,311579,-10.746,31.773,-17.1534,37.6728,-8.45687,-0.4856,3.79496,9.28203,2.56122,5.7709,-1.76978,34.5964,12,0,0,0
0,1405000609,312585,-10.6393,31.0985,-16.9716,36.9912,-8.45044,-0.478695,3.76732,9.26454,2.13301,6.02862,-1.20547,34.4978,12,0,0,0
0,1405000610,313589,-10.2625,31.6145,-17.2486,37.4475,-8.44426,-0.533029,3.76879,9.26247,1.4713,5.88151,-2.70814,34.5167,10,0,0,0
0,1405000611,314593,-10.3875,31.2537,-17.2906,37.1976,-8.49738,-0.48787,3.7333,9.29414,0.902297,5.27244,-1.81529,34.6832,11,0,0,0
0,1405000612,315598,-10.4444,31.2802,-17.2114,37.1991,-8.44166,-0.511443,3.76506,9.25737,1.87469,6.17674,-1.62073,34.5137,11,0,0,0
0,1405000613,316601,-10.3233,31.2846,-17.2339,37.1794,-8.4626,-0.524239,3.74576,9.26937,2.26043,6.18844,-1.49773,34.6476,5,0,0,0
0,1405000614,317612,-10.0415,31.1711,-16.8797,36.8429,-8.43151,-0.520311,3.76771,9.24969,-0.325153,6.08315,-0.652699,34.6739,7,0,0,0
0,1405000615,318617,-10.5933,31.4393,-17.0332,37.2931,-8.50034,-0.548753,3.74675,9.30564,1.5224,5.48707,-1.4826,34.7362,6,0,0,0
0,1405000616,319618,-10.4349,31.2852,-17.2924,37.2382,-8.48684,-0.40795,3.75588,9.28975,0.108647,6.82949,-2.10822,34.5763,7,0,0,0
0,1405000617,320628,-10.0461,31.3895,-17.5312,37.3305,-8.48337,-0.539348,3.7432,9.28817,2.05568,7.30666,-3.14083,34.5591,6,0,0,0
0,1405000618,321638,-10.0875,31.1437,-16.9531,36.8659,-8.48222,-0.4605,3.77574,9.29604,1.40949,6.82844,-2.27718,34.7454,6,0,0,0
0,1405000619,322643,-10.4785,31.4248,-16.9411,37.2064,-8.41666,-0.560611,3.88728,9.28792,-0.13334,7.37479,-3.13469,34.4678,6,0,0,0
0,1405000620,323650,-10.1433,31.0714,-16.8433,36.7697,-8.45171,-0.44071,3.81076,9.28157,0.80941,6.87634,-3.58011,34.3833,6,0,0,0
0,1405000621,324667,-10.1582,31.6809,-16.8426,37.29,-8.50054,-0.520781,3.7757,9.31592,1.77696,7.12112,-0.85984,34.5195,7,0,0,0
0,1405000622,325675,-10.2027,31.1962,-17.022,36.9736,-8.49821,-0.457046,3.74315,9.29729,1.31397,5.16676,-1.46783,34.6751,6,0,0,0
0,1405000623,326677,-10.4724,31.0096,-17.0293,36.8953,-8.45836,-0.494144,3.77781,9.27685,1.62858,6.34561,-0.961742,34.7008,7,0,0,0
0,1405000624,327683,-10.1744,31.2964,-16.5885,36.8532,-8.44909,-0.54026,3.76351,9.26515,0.641692,6.91255,-1.84648,34.7962,6,0,0,0
0,1405000625,328684,-10.631,31.2451,-17.158,37.1977,-8.48576,-0.52725,3.81294,9.31797,2.83347,6.86334,-1.66689,34.8616,7,0,0,0
0,1405000626,329694,-10.1762,31.0597,-17.0112,36.8462,-8.48654,-0.672553,3.77382,9.31211,3.54489,6.13652,-2.02855,34.8071,7,0,0,0
0,1405000627,330699,-10.3039,31.4999,-17.1613,37.3218,-8.4939,-0.592444,3.7724,9.31281,1.8495,7.06801,-1.4333,34.9322,8,0,0,0
0,1405000628,331709,-9.99386,31.0712,-17.0994,36.8468,-8.47604,-0.512123,3.76781,9.28988,2.1488,5.44507,-1.62592,34.8977,7,0,0,0
0,1405000629,332712,-9.88192,30.8627,-17.1598,36.669,-8.45018,-0.451617,3.78767,9.27124,1.66169,6.36534,-2.71996,34.9729,7,0,0,0
0,1405000630,333718,-9.92725,31.2425,-17.0724,36.9609,-8.45266,-0.485907,3.77308,9.26929,2.35939,6.60558,-0.690632,35.0054,7,0,0,0
0,1405000631,334723,-10.1092,31.0878,-16.6523,36.6872,-8.46755,-0.480294,3.76395,9.27887,1.48442,6.29785,-1.68944,34.9874,6,0,0,0
0,1405000632,335729,-9.90105,31.1893,-16.5492,36.6699,-8.48726,-0.526687,3.76687,9.30055,0.71245,5.7434,-1.36188,34.989,6,0,0,0
0,1405000633,336734,-10.4259,31.5089,-17.6134,37.5732,-8.46558,-0.49746,3.76301,9.2776,0.579446,5.42456,-0.727123,35.0141,7,0,0,0
0,1405000634,337739,-9.71615,31.065,-16.5435,36.512,-8.38874,-0.527232,3.77627,9.21461,2.14563,6.20665,-2.44591,35.0282,7,0,0,0
0,1405000635,338744,-10.1599,31.3147,-16.1499,36.6695,-8.44525,-0.590037,3.75304,9.26043,1.13712,5.89323,-0.80255,35.0894,7,0,0,0
0,1405000636,339751,-10.3155,31.1431,-16.8467,36.8797,-8.45073,-0.493317,3.7905,9.27503,2.41335,5.78724,-2.24194,35.1135,6,0,0,0
0,1405000637,340754,-10.3492,31.4607,-17.2189,37.3279,-8.46645,-0.490589,3.78368,9.28642,2.13429,5.9732,0.0809306,35.0981,7,0,0,0
0,1405000638,341755,-9.94786,31.3243,-16.575,36.809,-8.47829,-0.491767,3.773,9.29294,0.262604,6.53792,-2.0573,35.1899,7,0,0,0
0,1405000639,342764,-10.1779,31.5348,-17.0733,37.2764,-8.46477,-0.496498,3.77448,9.28147,1.50862,6.46839,-1.89181,35.2267,7,0,0,0
0,1405000640,343778,-9.87727,31.006,-16.6427,36.5501,-8.46601,-0.512529,3.76268,9.27867,1.64652,6.24534,-0.716094,35.175,7,0,0,0
0,1405000641,344784,-10.3343,31.306,-16.92,37.056,-8.46282,-0.483714,3.76456,9.27498,1.38811,6.57535,-1.48604,35.2884,7,0,0,0
0,1405000642,345789,-10.2706,30.778,-16.4919,36.3972,-8.47855,-0.48954,3.7766,9.29453,1.9427,6.08785,-1.10343,35.2989,7,0,0,0
0,1405000643,346794,-10.1908,31.1323,-16.859,36.8415,-8.4849,-0.486068,3.76636,9.29598,2.39316,6.72172,-1.41151,35.3105,6,0,0,0
0,1405000644,347801,-9.98391,31.1187,-17.195,36.9286,-8.48074,-0.463268,3.78514,9.29864,0.742458,6.2946,-1.15809,35.3096,6,0,0,0
0,1405000645,348807,-10.1895,31.7092,-17.2997,37.5311,-8.45463,-0.465763,3.74484,9.2586,1.58632,5.65579,-1.35466,35.3964,7,0,0,0
0,1405000646,349809,-10.3783,31.42,-17.1961,37.2912,-8.44904,-0.483802,3.77537,9.26681,3.6796,6.57962,-4.61155,35.4079,7,0,0,0
0,1405000647,350816,-10.1883,31.2466,-16.6626,36.8483,-8.45359,-0.500273,3.76372,9.2671,1.41846,5.48705,-1.52981,35.3514,6,0,0,0
0,1405000648,351821,-10.0502,31.3483,-17.3244,37.2002,-8.46332,-0.513492,3.79066,9.28766,0.286004,6.66532,-2.40818,35.451,7,0,0,0
0,1405000649,352830,-10.2967,31.7685,-17.492,37.6992,-8.42809,-0.502742,3.74518,9.23645,5.3261,5.70824,-3.36252,35.3669,8,0,0,0
0,1405000650,353835,-10.2426,31.5439,-16.7197,37.1413,-8.46086,-0.498652,3.73814,9.26329,1.36299,6.29429,-0.8246,35.4898,7,0,0,0
0,1405000651,354840,-10.0376,31.1855,-16.865,36.8472,-8.45361,-0.515206,3.7657,9.26873,2.02775,7.0252,-1.79239,35.421,7,0,0,0
0,1405000652,355844,-10.1983,31.5381,-16.9703,37.2378,-8.48162,-0.489847,3.78261,9.29979,2.42746,5.96315,-1.31319,35.4801,6,0,0,0
0,1405000653,356851,-9.80189,31.0731,-17.0762,36.786,-8.468,-0.508278,3.7987,9.29492,0.348032,7.07881,-2.70203,35.4767,6,0,0,0
0,1405000654,357859,-10.2511,30.9342,-16.2878,36.4322,-8.46613,-0.519162,3.73208,9.26679,1.36185,6.16377,-0.164518,35.4466,8,0,0,0
0,1405000655,358862,-10.2379,31.5852,-17.0381,37.3194,-8.46195,-0.509934,3.78491,9.28386,2.4171,5.78074,-2.28243,35.3352,6,0,0,0
0,1405000656,359868,-10.0842,31.4663,-16.9615,37.1418,-8.46069,-0.497047,3.75991,9.27185,0.195222,5.20335,-0.546763,35.4838,7,0,0,0
0,1405000657,360875,-10.3417,31.0758,-16.8011,36.8094,-8.47143,-0.505013,3.7699,9.28613,2.99394,6.2004,-1.86566,35.4775,6,0,0,0
0,1405000658,361882,-10.0779,31.7509,-17.4117,37.5879,-8.46376,-0.506293,3.78731,9.2863,2.65653,5.25973,-0.811694,35.4428,8,0,0,0
0,1405000659,362896,-10.1255,31.3489,-16.9872,37.0654,-8.45152,-0.504053,3.77737,9.27097,2.13996,6.63798,-0.384881,35.486,7,0,0,0
0,1405000660,363905,-10.0543,30.9302,-17.0711,36.7313,-8.45787,-0.504352,3.74773,9.26474,1.13766,6.69959,-2.27699,35.3488,7,0,0,0
0,1405000661,364917,-10.6537,31.3834,-17.3174,37.394,-8.47825,-0.514158,3.75973,9.28874,2.62017,6.39898,-0.545196,35.4179,7,0,0,0
0,1405000662,365921,-10.418,31.1904,-17.1678,37.096,-8.48732,-0.497834,3.77397,9.3019,1.12594,5.71399,-2.0826,35.4311,6,0,0,0
0,1405000663,366927,-10.2094,31.5052,-17.1724,37.3055,-8.45282,-0.481609,3.76999,9.26796,1.46396,6.33656,-2.06141,35.4414,7,0,0,0
0,1405000664,367931,-10.2643,31.3073,-17.1053,37.1227,-8.49398,-0.52618,3.76089,9.30424,0.76176,6.19292,-1.23508,35.502,6,0,0,0
0,1405000665,368938,-9.93717,31.128,-17.3684,37.0049,-8.46007,-0.520257,3.7743,9.27841,3.51545,5.37768,-1.24615,35.4527,6,0,0,0
0,1405000666,369948,-10.0454,31.6471,-16.6791,37.157,-8.47046,-0.515249,3.76145,9.28238,1.25385,6.36921,-1.53686,35.4576,7,0,0,0
0,1405000667,370954,-9.99321,31.5802,-17.1265,37.2893,-8.47867,-0.514732,3.761,9.28967,1.30634,6.6605,-1.8708,35.3412,6,0,0,0
0,1405000668,371959,-10.115,31.623,-16.8931,37.2519,-8.45341,-0.507871,3.79843,9.2815,2.78453,6.72787,-2.13475,35.3964,7,0,0,0
0,1405000669,372967,-10.0942,31.5519,-16.4687,36.9951,-8.46611,-0.518941,3.76304,9.27926,1.77031,7.40408,-1.434,35.4742,6,0,0,0
0,1405000670,373974,-9.85328,31.3128,-17.3013,37.1068,-8.45513,-0.510429,3.77397,9.27322,0.859715,5.24177,-2.39363,35.4749,7,0,0,0
0,1405000671,374982,-9.99846,31.1654,-16.3856,36.6024,-8.48884,-0.501806,3.76701,9.30067,0.774891,7.36665,-2.45227,35.5529,6,0,0,0
0,1405000672,375985,-10.0584,31.2544,-16.6693,36.8222,-8.46293,-0.51976,3.7712,9.27972,0.58553,6.58936,-1.31136,35.5216,7,0,0,0
0,1405000673,376995,-10.2535,31.1974,-17.2823,37.1092,-8.46486,-0.502743,3.79994,9.29226,0.695457,4.51874,-1.68881,35.5143,7,0,0,0
0,1405000674,377997,-9.90981,31.4134,-17.1337,37.1291,-8.4675,-0.520287,3.76443,9.28117,2.44177,6.6479,-1.4956,35.5436,7,0,0,0
0,1405000676,379001,-9.93177,31.2761,-17.0764,36.9924,-8.46992,-0.509878,3.80298,9.29851,1.72931,4.6786,-1.21469,35.6045,7,0,0,0
0,1405000677,380002,-9.95621,31.4613,-16.9716,37.1077,-8.42366,-0.533041,3.84982,9.27703,0.956827,6.70592,-0.373367,35.6636,7,0,0,0
0,1405000678,381010,-9.94167,31.5255,-16.7028,37.0361,-8.47607,-0.508783,3.73305,9.27568,2.62505,6.47853,-2.37987,35.6217,7,0,0,0
0,1405000679,382020,-10.0597,31.3603,-16.9429,37.0369,-8.46801,-0.523943,3.75256,9.27704,0.627964,6.49894,-2.35808,35.5648,6,0,0,0
0,1405000680,383024,-9.90235,31.4618,-16.6194,36.9338,-8.45821,-0.505947,3.76027,9.27022,0.421427,7.28449,-3.04505,35.6115,7,0,0,0
0,1405000681,384030,-10.0997,31.301,-16.9284,36.9909,-8.47344,-0.476728,3.76792,9.28567,0.794485,5.92075,-0.888472,35.6197,7,0,0,0
0,1405000682,385035,-9.97435,31.1596,-16.9483,36.8464,-8.45001,-0.474919,3.75886,9.26052,1.29731,5.24058,-0.19354,35.6261,6,0,0,0
0,1405000683,386044,-10.2652,30.9737,-17.2043,36.8881,-8.4748,-0.504565,3.81877,9.30912,1.725,6.67874,-1.62543,35.6722,7,0,0,0
0,1405000684,387048,-10.1033,31.3903,-16.7797,36.9998,-8.45914,-0.48541,3.76016,9.26992,1.57517,6.51654,-1.04836,35.6536,7,0,0,0
0,1405000685,388055,-10.3762,31.4163,-16.5113,36.9767,-8.49397,-0.538937,3.78578,9.31505,1.63399,6.56929,-1.65472,35.616,8,0,0,0
0,1405000686,389060,-9.86119,31.2343,-17.0008,36.9033,-8.46753,-0.508007,3.79529,9.29308,0.24344,5.95943,-1.83536,35.6411,6,0,0,0
0,1405000687,390061,-10.2244,31.3829,-17.1563,37.199,-8.46562,-0.511688,3.79484,9.29136,1.93404,5.96532,-0.837523,35.7845,6,0,0,0
0,1405000688,391062,-9.93345,31.0523,-16.9493,36.745,-8.46026,-0.52844,3.74863,9.26863,1.86499,6.49743,-1.81973,35.8144,8,0,0,0
0,1405000689,392069,-10.0621,31.008,-17.3083,36.9096,-8.48964,-0.524789,3.73753,9.29078,1.49536,5.03915,-1.18104,35.787,7,0,0,0
0,1405000690,393072,-10.0084,30.9649,-16.5025,36.4873,-8.4823,-0.504014,3.77784,9.29923,0.586001,6.22437,-0.766818,35.8481,7,0,0,0
0,1405000691,394079,-10.0411,30.8905,-17.2478,36.7768,-8.47103,-0.507966,3.74482,9.27578,1.86626,6.86122,-2.01689,35.8678,6,0,0,0
0,1405000692,395084,-10.202,31.3538,-16.9874,37.0907,-8.47976,-0.501892,3.75733,9.28847,2.74735,5.64704,-1.91083,35.8568,7,0,0,0
0,1405000693,396092,-10.1318,30.8322,-16.9503,36.6141,-8.47328,-0.496073,3.78451,9.29328,2.11072,6.78382,-1.31884,35.8427,7,0,0,0
0,1405000694,397094,-9.94946,31.088,-16.9759,36.7918,-8.4781,-0.502032,3.78194,9.29695,2.52026,5.94343,-2.61664,35.8549,7,0,0,0
0,1405000695,398106,-10.0343,31.0414,-17.0444,36.8071,-8.44766,-0.530236,3.76657,9.26451,2.31433,6.53187,-1.32261,35.8848,7,0,0,0
0,1405000696,399107,-10.2615,31.2705,-16.956,37.0223,-8.46758,-0.506292,3.75952,9.27849,1.24321,8.03013,-0.0399802,36.0451,7,0,0,0
0,1405000697,400114,-10.0093,31.047,-16.8722,36.7256,-8.44682,-0.499331,3.74543,9.25345,0.130678,6.73979,-2.57451,35.925,7,0,0,0
0,1405000698,401119,-10.2294,31.2274,-17.4163,37.1903,-8.45897,-0.525559,3.7625,9.27291,0.884706,6.54522,-1.68753,36.0395,6,0,0,0
0,1405000699,402122,-10.2726,31.7787,-16.7073,37.3436,-8.4661,-0.49456,3.75143,9.27322,1.15068,7.30254,-2.61508,35.9746,7,0,0,0
0,1405000700,403129,-10.249,31.2628,-17.2289,37.1381,-8.44899,-0.468815,3.77261,9.26487,0.931439,6.20108,-1.86845,36.0395,7,0,0,0
0,1405000701,404134,-10.0759,31.093,-16.5995,36.6585,-8.46682,-0.516794,3.75062,9.27476,0.569407,5.89572,-1.99832,36.1556,7,0,0,0
0,1405000702,405147,-9.82024,31.2271,-16.8922,36.8363,-8.48691,-0.502358,3.76592,9.2985,1.39049,6.637,-0.874203,36.1396,8,0,0,0
0,1405000703,406153,-10.0547,31.2129,-16.9172,36.8989,-8.50599,-0.501906,3.78197,9.32239,2.08269,6.88716,-2.16745,36.1693,7,0,0,0
0,1405000704,407155,-9.688,30.8428,-16.6346,36.3572,-8.47557,-0.501784,3.74375,9.27916,1.45144,6.69522,-1.9776,36.157,7,0,0,0
0,1405000705,408161,-10.2279,31.2546,-16.5541,36.8171,-8.47055,-0.50826,3.79108,9.29413,1.83777,6.38473,-1.26267,36.056,6,0,0,0
0,1405000706,409168,-10.1587,31.4475,-16.8607,37.1002,-8.44663,-0.518705,3.77789,9.26752,2.11753,6.94992,-2.38791,36.1974,7,0,0,0
0,1405000707,410176,-10.0682,31.0374,-17.1464,36.8605,-8.46184,-0.48558,3.76451,9.27416,1.20578,6.4509,-1.41034,36.2728,6,0,0,0
0,1405000708,411177,-10.1198,31.3499,-17.0939,37.1137,-8.47286,-0.480471,3.75745,9.28109,3.1225,6.61323,-1.87005,36.2577,6,0,0,0
0,1405000709,412184,-10.073,31.3145,-16.5521,36.8244,-8.44851,-0.488305,3.7779,9.2676,2.68192,5.92543,-1.51626,36.2861,7,0,0,0
0,1405000710,413192,-10.3381,31.1436,-16.5536,36.7535,-8.46195,-0.498588,3.80247,9.29043,1.12412,7.23237,-2.44964,36.364,7,0,0,0
0,1405000711,414197,-10.0878,30.8372,-16.7087,36.4949,-8.45201,-0.521477,3.76689,9.26811,1.86814,6.5569,-1.17326,36.391,6,0,0,0
0,1405000712,415198,-10.2906,30.9906,-17.1559,36.8868,-8.44428,-0.472799,3.77822,9.26306,1.80742,7.55669,-0.460587,36.3568,6,0,0,0
0,1405000713,416203,-9.98743,31.1507,-17.196,36.9569,-8.45214,-0.502509,3.78683,9.27531,0.215306,5.98752,-1.24385,36.3594,6,0,0,0
0,1405000714,417204,-10.1907,31.1321,-16.9308,36.8742,-8.48668,-0.50309,3.67724,9.26277,-0.0583718,6.05699,-2.77215,36.299,6,0,0,0
0,1405000715,418206,-10.4232,30.8466,-17.0888,36.772,-8.57458,-0.472049,3.69135,9.34731,0.62473,5.43005,-1.87226,36.2839,6,0,0,0
0,1405000716,419209,-10.1968,31.7184,-16.8731,37.3461,-8.45612,-0.531294,3.77993,9.27772,1.51791,6.27011,-2.08276,36.2614,7,0,0,0
0,1405000717,420210,-9.92711,31.2016,-16.8729,36.8345,-8.46783,-0.493034,3.75774,9.27728,1.94047,5.5999,-0.961288,36.3267,6,0,0,0
0,1405000718,421218,-10.1487,31.0245,-16.7968,36.7103,-8.47304,-0.495608,3.78065,9.29147,-0.191835,7.07519,-1.15464,36.1223,8,0,0,0
0,1405000719,422228,-10.0738,31.4101,-16.6929,36.9693,-8.4288,-0.634393,3.80866,9.27109,3.29286,6.72173,-1.71749,36.251,7,0,0,0
0,1405000720,423235,-10.1147,31.1592,-16.7541,36.7954,-8.46853,-0.521706,3.78107,9.28895,1.54277,6.66357,-1.28215,36.3293,7,0,0,0
0,1405000721,424244,-10.1671,31.3821,-17.0896,37.1519,-8.46936,-0.498404,3.77492,9.28593,2.40174,5.6931,-1.44313,36.2803,6,0,0,0
0,1405000722,425247,-9.97038,31.2291,-16.7478,36.8125,-8.48625,-0.468143,3.77552,9.30001,0.729275,6.59741,-2.28514,36.2925,6,0,0,0
0,1405000723,426249,-10.1628,31.4723,-16.6233,37.0152,-8.45659,-0.495333,3.77353,9.27356,0.922853,6.13526,-1.38617,36.3374,7,0,0,0
0,1405000724,427258,-10.0566,31.1598,-16.4343,36.6354,-8.46479,-0.500532,3.78931,9.28774,1.28243,5.96585,-1.23646,36.3849,7,0,0,0
0,1405000725,428260,-9.9492,30.9733,-16.918,36.6681,-8.49398,-0.516056,3.7754,9.30954,1.10341,6.38809,-1.6292,36.3811,7,0,0,0
0,1405000726,429265,-9.89922,31.1407,-16.8261,36.754,-8.47112,-0.492572,3.74167,9.27376,1.47854,6.57964,-1.91411,36.4238,8,0,0,0
0,1405000727,430266,-10.062,31.2653,-16.6384,36.8185,-8.49184,-0.487571,3.78129,9.30845,1.88588,7.01866,-2.44218,36.3757,6,0,0,0
0,1405000728,431267,-10.2459,31.1648,-16.6772,36.8015,-8.44534,-0.45889,3.7723,9.26092,0.413815,6.17896,-1.89288,36.4247,8,0,0,0
0,1405000729,432275,-10.0641,30.9489,-16.8687,36.6562,-8.48621,-0.511776,3.78365,9.30557,0.177469,7.18935,-0.869211,36.5512,6,0,0,0
0,1405000730,433283,-9.92227,31.3266,-16.7687,36.8916,-8.45777,-0.509369,3.76907,9.27358,0.129392,7.14114,-0.543801,36.5908,7,0,0,0
0,1405000731,434286,-5.72956,33.5616,-14.7252,37.095,-8.48658,-0.504492,3.77645,9.30259,0.972476,8.48799,-1.89581,36.62,7,0,0,0
0,1405000732,435290,-9.9043,31.3794,-17.4156,37.2299,-8.46516,-0.468632,3.77593,9.28096,1.61613,6.20808,-1.62465,36.7459,7,0,0,0
0,1405000733,436294,-9.18573,29.2816,-27.9665,41.5201,-8.49528,-0.522934,3.72679,9.29151,0.643852,7.36309,-1.04338,36.7131,7,0,0,0
0,1405000734,437299,-9.2972,29.6851,-22.3707,38.3157,-8.46753,-0.482946,3.7443,9.27103,1.12767,6.32755,-1.71555,36.7402,6,0,0,0
0,1405000735,438304,-9.40734,29.8492,-22.2576,38.4041,-8.47006,-0.476703,3.77582,9.28579,0.291804,6.39894,-1.10269,36.7749,7,0,0,0
0,1405000736,439313,-9.33988,30.0702,-22.4911,38.6949,-8.53682,-0.466916,3.65783,9.29919,2.95077,5.3902,-1.52316,36.8254,7,0,0,0
0,1405000737,440317,-9.17296,29.5768,-22.6252,38.3514,-8.49544,-0.508971,3.72305,9.28939,1.06359,5.92304,-1.60581,36.9009,6,0,0,0
0,1405000738,441323,-9.28207,29.749,-22.083,38.1945,-8.44858,-0.492607,3.81461,9.28291,2.75851,6.6273,-1.03633,36.8995,8,0,0,0
0,1405000739,442324,-9.33608,29.6423,-22.1822,38.1822,-8.45789,-0.476332,3.71716,9.25095,0.475177,6.90763,-1.65783,36.8427,6,0,0,0
0,1405000740,443333,-9.01103,30.0773,-22.0325,38.3572,-8.46957,-0.484582,3.82752,9.3069,2.57935,6.70651,-1.7029,36.8784,7,0,0,0
0,1405000741,444334,-9.53323,29.568,-22.5414,38.3831,-8.44947,-0.497966,3.79972,9.2779,1.18682,6.05071,-3.10615,36.8574,7,0,0,0
0,1405000742,445343,-9.43409,29.5423,-22.5498,38.3437,-8.43664,-0.466339,3.81737,9.27182,1.33396,7.29537,-2.32205,36.8703,7,0,0,0
0,1405000743,446345,-9.40183,29.9914,-21.9977,38.3637,-8.49949,-0.536278,3.72383,9.29493,2.44608,6.0712,-2.20268,36.8279,7,0,0,0
0,1405000744,447349,-9.2557,29.4805,-22.5162,38.2328,-8.46284,-0.482776,3.79146,9.2859,2.50421,6.69431,-2.19537,36.9458,6,0,0,0
0,1405000745,448356,-9.2653,29.5422,-22.4329,38.2338,-8.44742,-0.515925,3.76847,9.26425,2.37073,6.96181,-0.756653,36.9076,7,0,0,0
0,1405000746,449360,-9.24265,29.6873,-22.3552,38.2951,-8.47578,-0.509388,3.75439,9.28406,1.88295,6.60337,-1.34206,37.0407,7,0,0,0
0,1405000747,450368,-9.53678,30.1345,-22.1737,38.6097,-8.46618,-0.524411,3.7432,9.27161,1.91277,6.32922,-1.41615,37.0142,6,0,0,0
0,1405000748,451377,-9.42114,29.64,-21.9313,38.0561,-8.44365,-0.514745,3.77219,9.26226,1.85203,6.42229,-1.41269,37.0103,7,0,0,0
0,1405000749,452379,-9.2356,30.0905,-22.0239,38.416,-8.43649,-0.460503,3.80401,9.26591,1.68698,6.62009,-0.882753,37.0193,6,0,0,0
0,1405000750,453395,-9.42908,30.1257,-22.5432,38.7899,-8.45601,-0.488117,3.77366,9.2727,1.49589,6.62714,-1.53661,37.0579,7,0,0,0
0,1405000751,454396,-9.44382,30.0754,-22.2366,38.5769,-8.74132,-0.676625,3.90761,9.59885,1.511,7.37932,-2.4944,37.0466,6,0,0,0
0,1405000752,455399,-9.22088,29.9337,-22.4291,38.5243,-8.45608,-0.518001,3.74411,9.26239,1.34373,5.85757,-0.654878,37.0482,7,0,0,0
0,1405000753,456400,-9.21949,29.7215,-22.3837,38.3327,-8.4889,-0.506563,3.72092,9.28242,2.06027,5.94114,-0.333033,36.9601,6,0,0,0
0,1405000754,457402,-9.38039,29.8678,-22.5564,38.5859,-8.4536,-0.501377,3.68946,9.23725,0.60182,7.42582,-1.71268,37.05,7,0,0,0
0,1405000755,458409,-9.34444,29.8709,-22.0233,38.2703,-8.47352,-0.509841,3.7407,9.2765,1.52425,6.91636,-1.70681,37.048,6,0,0,0
0,1405000756,459412,-9.3594,29.5936,-22.4562,38.3101,-8.45163,-0.484106,3.75737,9.26187,2.72916,6.29302,-1.37074,36.9569,7,0,0,0
0,1405000757,460416,-9.16958,29.6142,-22.5747,38.3497,-8.4702,-0.512652,3.74061,9.27357,1.15823,5.24254,-1.7984,36.9337,5,0,0,0
0,1405000758,461425,-9.1856,29.7164,-22.2625,38.2499,-8.45069,-0.482253,3.7537,9.25943,1.75266,6.51287,-1.85107,37.0448,6,0,0,0
0,1405000759,462432,-9.02599,29.261,-22.1607,37.7991,-8.4594,-0.485349,3.74208,9.26284,2.26902,6.83864,-2.04364,37.0629,5,0,0,0
0,1405000760,463440,-9.13874,29.903,-21.8937,38.1712,-8.46297,-0.500209,3.78242,9.28325,2.05867,6.36119,-1.36807,37.01,5,0,0,0
0,1405000761,464443,-9.18665,29.8323,-21.6997,38.0163,-8.43686,-0.500278,3.73927,9.24191,0.619782,7.20362,-1.88124,36.9091,6,0,0,0
0,1405000762,465445,-9.38218,29.7735,-21.9494,38.161,-8.49857,-0.487781,3.79931,9.32193,0.857162,6.352,-1.53882,36.9738,7,0,0,0
0,1405000763,466454,-9.29111,29.6442,-22.4002,38.2998,-8.48572,-0.468663,3.77326,9.29864,0.425127,6.80387,-2.21337,37.0041,6,0,0,0
0,1405000764,467461,-9.0542,29.5315,-22.1763,38.0247,-8.46444,-0.46135,3.75136,9.26997,3.18193,5.88367,-1.62152,37.0161,7,0,0,0
0,1405000765,468469,-9.13356,29.7822,-22.4018,38.3698,-8.45151,-0.530806,3.7884,9.27695,0.371663,7.06258,-1.46969,37.1067,6,0,0,0
0,1405000766,469472,-9.35609,29.6908,-21.8408,38.0276,-8.47077,-0.4626,3.73807,9.27044,4.16056,6.27256,-1.74238,37.1102,7,0,0,0
0,1405000767,470484,-9.06597,29.9164,-22.238,38.3629,-8.47556,-0.496032,3.79797,9.30085,2.25386,7.18675,-1.38165,37.2218,7,0,0,0
0,1405000768,471487,-9.24181,29.9412,-22.181,38.3912,-8.47803,-0.501301,3.74846,9.28328,1.84716,6.51785,-0.941074,37.2744,6,0,0,0
0,1405000769,472492,-9.37635,30.4679,-22.3595,38.9378,-8.45933,-0.486499,3.75921,9.26976,2.95921,6.56069,-2.2281,37.2214,6,0,0,0
0,1405000770,473503,-9.21052,29.8642,-22.4944,38.5059,-8.49363,-0.532326,3.75725,9.3028,1.58785,6.44942,-0.798727,37.2234,7,0,0,0
0,1405000771,474512,-9.24551,29.9615,-22.3823,38.5245,-8.48541,-0.464603,3.79051,9.30516,0.652041,6.3906,-3.66085,37.2864,8,0,0,0
0,1405000772,475519,-9.13645,30.0196,-22.3375,38.5177,-8.47928,-0.542273,3.77444,9.29724,0.436092,7.12141,-1.30832,37.1498,7,0,0,0
0,1405000773,476522,-9.05504,29.9714,-22.2816,38.4285,-8.47135,-0.501726,3.74638,9.27636,1.25368,6.40102,-0.464903,37.2188,6,0,0,0
0,1405000774,477524,-9.16694,30.1794,-22.5628,38.7803,-8.46053,-0.519755,3.78949,9.28499,1.62608,7.71711,-2.26275,37.1933,7,0,0,0
0,1405000775,478530,-9.2246,29.3695,-22.4194,38.0827,-8.46629,-0.580378,3.79307,9.29528,1.99798,6.35027,-1.57027,37.2003,7,0,0,0
0,1405000776,479539,-9.43216,30.1236,-22.5925,38.8178,-8.44529,-0.396179,3.80983,9.27333,1.23092,5.3037,-1.40877,37.15,6,0,0,0
0,1405000777,480540,-9.10344,29.9557,-22.4714,38.538,-8.4777,-0.560739,3.74973,9.28689,0.728199,7.1516,-2.00014,37.0862,7,0,0,0
0,1405000778,481548,-9.40834,29.9437,-22.5425,38.6434,-8.49062,-0.510186,3.73167,9.2885,0.720145,6.99028,-2.37641,36.9504,6,0,0,0
0,1405000779,482552,-8.97033,30.191,-22.7923,38.8774,-8.43845,-0.506691,3.75171,9.24875,1.25767,7.00305,-1.27568,36.9256,6,0,0,0
0,1405000780,483559,-9.11875,30.0975,-22.3762,38.5967,-8.45435,-0.51417,3.75456,9.26484,0.273048,5.90817,-0.989086,36.9906,6,0,0,0
0,1405000781,484567,-9.10312,29.9446,-22.4362,38.5088,-8.50458,-0.489286,3.76197,9.31234,2.07794,6.34808,-0.479796,37.0077,7,0,0,0
0,1405000782,485573,-9.0789,29.9061,-22.1977,38.3346,-8.47074,-0.521585,3.75891,9.28197,1.86104,6.09264,-1.68727,37.1661,7,0,0,0
0,1405000783,486576,-9.23574,29.5748,-22.3549,38.2062,-8.45531,-0.481177,3.77552,9.27245,1.42273,6.29627,-2.86235,37.0107,6,0,0,0
0,1405000784,487580,-9.26734,29.6875,-22.154,38.1842,-8.46515,-0.493345,3.74042,9.26784,2.50875,5.86862,-1.93356,37.0912,6,0,0,0
0,1405000785,488581,-9.34768,29.7368,-22.4341,38.405,-8.47772,-0.506621,3.78998,9.30012,3.11641,6.86868,-1.45198,37.1193,7,0,0,0
0,1405000786,489585,-9.19543,29.8091,-22.5325,38.4819,-8.49105,-0.515159,3.76676,9.30332,0.736365,6.38496,-0.991337,37.1255,7,0,0,0
0,1405000787,490592,-9.10858,29.9837,-21.9832,38.2786,-8.475,-0.527973,3.76113,9.28712,2.69095,6.52447,-1.68302,37.1174,7,0,0,0
0,1405000788,491598,-9.07774,29.8876,-21.9789,38.1935,-8.46218,-0.528106,3.74668,9.26958,1.48685,7.10524,-1.89731,37.1539,6,0,0,0
0,1405000789,492607,-9.23808,29.1742,-22.8955,38.2189,-8.46756,-0.507119,3.75628,9.2772,-0.339699,6.40143,-0.586832,37.1379,7,0,0,0
0,1405000790,493608,-9.02296,30.0023,-22.1327,38.3589,-8.44677,-0.532452,3.78312,9.27056,1.68407,7.36935,-2.68292,37.241,7,0,0,0
0,1405000791,494616,-9.1404,29.8382,-22.1116,38.2464,-8.47645,-0.514587,3.77136,9.29183,0.168512,6.03597,-0.989104,37.2555,8,0,0,0
0,1405000792,495619,-9.34799,29.8217,-22.1734,38.3194,-8.47728,-0.493352,3.77969,9.29482,1.14937,5.48819,-1.31095,37.2229,7,0,0,0
0,1405000793,496625,-9.19737,29.8682,-22.1263,38.292,-8.47269,-0.491282,3.76184,9.28328,0.820376,5.96273,-2.03621,37.2769,6,0,0,0
0,1405000794,497632,-9.28109,29.5574,-21.8782,37.9267,-8.44438,-0.513794,3.76515,9.26001,2.55049,8.06436,-2.07877,37.2671,7,0,0,0
0,1405000795,498637,-9.20269,29.9332,-22.2342,38.4063,-8.45046,-0.52201,3.76929,9.2677,2.99934,6.1662,-2.46828,37.3033,6,0,0,0
0,1405000796,499639,-9.43578,29.7944,-22.4034,38.4533,-8.45056,-0.504367,3.81315,9.28474,1.02854,6.50828,-0.628417,37.4139,6,0,0,0
0,1405000797,500641,-9.3238,29.6789,-22.2617,38.2538,-8.47448,-0.508413,3.76413,9.28676,2.23495,7.3232,-3.50485,37.1653,7,0,0,0
0,1405000798,501652,-9.21688,30.0583,-22.6896,38.772,-8.44697,-0.519408,3.78589,9.27114,2.40579,7.24136,0.063423,37.4289,6,0,0,0
0,1405000799,502655,-9.262,30.2442,-22.2076,38.6481,-8.46106,-0.519805,3.79287,9.28685,1.92168,6.16435,-1.49929,37.4383,7,0,0,0
0,1405000800,503658,-9.24355,29.7878,-22.0971,38.2235,-8.47251,-0.526298,3.7578,9.2834,0.290837,7.27795,-2.64432,37.384,6,0,0,0
0,1405000801,504659,-9.25934,29.9174,-22.3174,38.4558,-8.4325,-0.498273,3.82752,9.2739,1.59815,7.12128,-2.16246,37.4647,6,0,0,0
0,1405000802,505667,-9.10824,29.9934,-22.0953,38.3506,-8.47415,-0.496198,3.76967,9.28805,-0.0580097,7.16574,-1.6846,37.4747,6,0,0,0
0,1405000803,506669,-9.20933,30.1014,-22.38,38.6235,-8.48908,-0.562054,3.72253,9.28642,1.13143,6.65274,-2.29971,37.3776,6,0,0,0
0,1405000804,507676,-9.07071,29.7398,-22.1732,38.1888,-8.46752,-0.479295,3.8136,9.29904,2.0741,6.62607,-0.71503,37.5109,7,0,0,0
0,1405000805,508683,-9.57248,30.232,-22.3412,38.7909,-8.45054,-0.496071,3.79844,9.27824,1.76163,6.93793,-1.80967,37.4762,5,0,0,0
0,1405000806,509693,-9.27307,29.8895,-21.9587,38.2303,-8.47225,-0.502161,3.76809,9.28599,1.9411,7.42703,-1.85426,37.467,7,0,0,0
0,1405000807,510694,-9.25344,29.8074,-22.1971,38.299,-8.46745,-0.47087,3.77918,9.28449,2.38997,5.52628,-1.37589,37.3914,6,0,0,0
0,1405000808,511695,-9.44177,29.5016,-22.4054,38.2294,-8.4228,-0.494942,3.77796,9.24454,1.58317,7.50103,-1.10903,37.4441,7,0,0,0
0,1405000809,512698,-9.36589,29.6868,-22.1385,38.1986,-8.46862,-0.455318,3.78027,9.28522,1.81187,6.55222,-1.15078,37.4411,8,0,0,0
0,1405000810,513704,-8.95804,29.7307,-22.2724,38.2129,-8.4442,-0.489923,3.82294,9.28221,0.425197,6.30503,-1.31582,37.408,6,0,0,0
0,1405000811,514708,-9.134,30.1849,-22.1183,38.5198,-8.49299,-0.4627,3.73489,9.28948,1.94951,7.57347,-2.03466,37.3571,7,0,0,0
0,1405000812,515711,-9.33462,30.137,-21.8077,38.353,-8.44849,-0.462429,3.8041,9.27696,-0.241434,7.46269,-1.32251,37.3879,6,0,0,0
0,1405000813,516723,-9.2808,30.0415,-22.6198,38.7335,-8.47278,-0.521604,3.8083,9.30394,2.69682,6.76561,-1.83763,37.2691,6,0,0,0
0,1405000814,517725,-9.43712,29.8373,-22.2516,38.3987,-8.44125,-0.509821,3.82653,9.28208,2.62385,5.65926,-1.55851,37.2981,7,0,0,0
0,1405000815,518736,-9.07406,29.6946,-22.1317,38.1303,-8.43974,-0.497782,3.74047,9.2449,0.81488,7.36567,-2.66901,37.4598,7,0,0,0
0,1405000816,519745,-9.436,30.2503,-22.1149,38.6418,-8.4855,-0.50103,3.7611,9.29519,2.20699,6.69577,-0.840618,37.3746,6,0,0,0
0,1405000817,520746,-9.42074,29.9869,-22.4819,38.6446,-8.46462,-0.51261,3.78355,9.2859,1.88107,6.8115,-1.55769,37.2472,7,0,0,0
0,1405000818,521754,-9.03936,29.5333,-22.4129,38.1611,-8.48917,-0.488186,3.75198,9.29417,2.1286,6.11947,-0.940598,37.3,6,0,0,0
0,1405000819,522760,-9.41153,30.0496,-21.9,38.3558,-8.46233,-0.475256,3.78811,9.28368,2.63926,6.7466,-0.943182,37.2358,7,0,0,0
0,1405000820,523762,-9.41234,30.0014,-21.9014,38.319,-8.47734,-0.530951,3.75917,9.28863,2.35214,6.89669,-0.662117,37.3653,6,0,0,0
0,1405000821,524763,-8.95706,29.5872,-22.3134,38.1251,-8.48511,-0.528118,3.78753,9.30706,1.19642,6.86537,-0.188415,37.3413,7,0,0,0
0,1405000822,525766,-9.19859,30.1226,-22.0907,38.4705,-8.4856,-0.580208,3.77998,9.30754,0.659231,6.82308,-1.99466,37.2692,6,0,0,0
0,1405000823,526775,-9.57845,29.952,-22.4535,38.6398,-8.46221,-0.477072,3.77672,9.27902,2.67385,6.31995,-1.452,37.2895,6,0,0,0
0,1405000824,527783,-9.05566,29.9699,-22.3452,38.4644,-8.48347,-0.488411,3.74363,9.28561,1.58114,7.04134,-2.05674,37.2684,7,0,0,0
0,1405000825,528786,-9.48824,29.8687,-22.5926,38.6341,-8.46794,-0.49402,3.71994,9.26218,1.87175,6.50187,-0.810863,37.2382,6,0,0,0
0,1405000826,529791,-9.37148,29.9739,-22.2926,38.5125,-8.45907,-0.507505,3.73663,9.26153,3.22169,7.00076,-1.6694,37.2604,7,0,0,0
0,1405000827,530802,-9.33243,29.709,-22.21,38.2493,-8.46819,-0.524577,3.76578,9.28259,1.86202,6.89214,-2.37212,37.2864,7,0,0,0
0,1405000828,531810,-9.33036,29.847,-22.4797,38.5128,-8.48141,-0.516129,3.73791,9.28293,1.88239,6.31912,-2.59988,37.246,7,0,0,0
0,1405000829,532819,-9.02062,29.9589,-22.3039,38.4236,-8.48174,-0.544862,3.7687,9.2973,0.625842,6.90514,-1.21688,37.364,8,0,0,0
0,1405000830,533824,-9.20313,29.8281,-22.0697,38.2293,-8.47933,-0.532584,3.75375,9.28834,2.3678,6.72798,-0.81187,37.3491,7,0,0,0
0,1405000831,534828,-9.39659,30.0152,-22.4142,38.6213,-8.4818,-0.505015,3.77446,9.29745,0.650737,6.47148,-2.32472,37.4307,7,0,0,0
0,1405000832,535830,-9.07688,29.8187,-21.9572,38.127,-8.46174,-0.487531,3.77248,9.27741,1.12444,6.32022,-1.91252,37.4003,6,0,0,0
0,1405000833,536841,-9.42698,29.7185,-21.9818,38.1479,-8.47606,-0.472048,3.77742,9.29168,2.03803,7.32281,-1.91836,37.4564,8,0,0,0
0,1405000834,537844,-9.20757,30.0612,-22.2839,38.536,-8.41004,-0.447917,3.68208,9.19168,2.66419,4.82939,-2.93784,37.3574,7,0,0,0
0,1405000835,538853,-9.41506,29.7621,-22.5178,38.49,-8.43922,-0.531533,3.70293,9.23118,1.27856,5.79331,-1.48568,37.456,6,0,0,0
0,1405000836,539856,-9.1863,29.7972,-22.1317,38.2371,-8.47352,-0.480565,3.76023,9.28282,1.2661,6.07374,-2.32495,37.446,7,0,0,0
0,1405000837,540863,-9.36689,29.6114,-22.5627,38.3882,-8.46219,-0.494275,3.7866,9.28393,2.09598,6.32883,-1.59873,37.4992,6,0,0,0
0,1405000838,541873,-9.35375,29.8836,-22.4157,38.5096,-8.45252,-0.506683,3.76684,9.26773,2.76709,6.12785,-3.01011,37.4722,7,0,0,0
0,1405000839,542882,-9.15447,30.0153,-22.1778,38.4263,-8.47643,-0.503694,3.76361,9.28808,1.96181,6.82417,-1.16284,37.5585,6,0,0,0
0,1405000840,543889,-9.10958,30.2427,-21.9919,38.487,-8.47299,-0.482038,3.76132,9.28285,3.11477,7.60446,-1.32902,37.5926,7,0,0,0
0,1405000841,544899,-9.39143,29.8395,-22.5951,38.5893,-8.46551,-0.505342,3.75196,9.27348,1.50323,7.50904,-0.8044,37.668,6,0,0,0
0,1405000842,545907,-9.26052,29.7709,-21.9713,38.1419,-8.47394,-0.49016,3.77061,9.28791,1.66927,7.24642,-1.36744,37.5705,7,0,0,0
0,1405000843,546909,-9.31844,29.8766,-22.4586,38.5205,-8.47128,-0.518648,3.78764,9.29396,1.08994,6.59957,-1.67249,37.6151,7,0,0,0
0,1405000844,547912,-9.09524,30.0939,-22.2599,38.5211,-8.45362,-0.486985,3.73745,9.25578,1.06073,7.46425,-1.08511,37.6638,7,0,0,0
0,1405000845,548920,-9.10525,29.8137,-22.2614,38.3058,-8.4579,-0.531168,3.75497,9.2692,0.775057,6.55123,-0.983267,37.6436,7,0,0,0
0,1405000846,549925,-9.12226,29.9922,-22.4951,38.5847,-8.47563,-0.529446,3.75893,9.28688,0.921928,6.84933,-2.44226,37.6779,7,0,0,0
0,1405000847,550926,-9.24222,30.0186,-21.9995,38.3473,-8.49936,-0.51422,3.78771,9.31935,1.67186,6.98534,-1.50548,37.7306,7,0,0,0
0,1405000848,551928,-9.24193,29.8757,-22.0545,38.2671,-8.47671,-0.468192,3.7921,9.29805,2.05326,7.09723,-1.12359,37.5897,6,0,0,0
0,1405000849,552935,-9.30334,30.0767,-22.1889,38.5164,-8.46182,-0.491096,3.77112,9.27712,0.91381,6.39417,-1.65694,37.7441,6,0,0,0
0,1405000850,553944,-9.22057,29.7947,-22.203,38.2847,-8.44875,-0.469937,3.72328,9.24473,3.36589,7.20143,-2.02946,37.7195,6,0,0,0
0,1405000851,554955,-9.38753,30.032,-22.2266,38.5236,-8.4715,-0.514926,3.76289,9.2839,2.03611,6.00701,-2.5233,37.8355,6,0,0,0
0,1405000852,555957,-9.24957,29.9073,-22.07,38.3026,-8.47257,-0.453176,3.77969,9.28848,2.5504,7.93305,-1.81562,37.8545,5,0,0,0
0,1405000853,556960,-9.11878,30.059,-21.9329,38.3112,-8.46461,-0.48723,3.76126,9.27546,0.948621,7.39726,-0.946844,37.8379,6,0,0,0
0,1405000854,557967,-9.08879,29.6322,-21.9778,37.996,-8.44343,-0.519337,3.78083,9.26585,0.034266,6.14703,-2.69492,37.8105,5,0,0,0
0,1405000855,558973,-9.89569,29.641,-22.1803,38.3207,-8.47146,-0.514689,3.79557,9.29714,1.90586,7.10423,-0.858407,37.7952,7,0,0,0
0,1405000856,559983,-9.37663,29.9738,-22.4173,38.5861,-8.49306,-0.503804,3.75261,9.29881,2.36167,7.81586,-1.84599,37.8791,7,0,0,0
0,1405000857,560994,-9.28539,30.1082,-22.299,38.6001,-8.46976,-0.50319,3.79016,9.29275,1.35235,6.94146,-2.03981,37.835,7,0,0,0
0,1405000859,562001,-9.4044,30.3011,-22.2969,38.7782,-8.47048,-0.516155,3.7898,9.29398,1.10955,7.09581,-1.6633,37.8674,7,0,0,0
0,1405000860,563011,-9.31026,30.3481,-22.1445,38.7049,-8.48119,-0.503879,3.7585,9.29036,-1.02133,6.47951,-1.03803,37.8033,7,0,0,0
0,1405000861,564014,-9.08641,30.0013,-22.3445,38.4957,-8.46709,-0.522632,3.7529,9.27626,1.1799,6.84593,-3.06614,37.7579,7,0,0,0
0,1405000862,565016,-9.33356,29.7225,-21.9507,38.11,-8.46071,-0.49017,3.77035,9.27574,2.95959,5.93,-1.79983,37.6889,7,0,0,0
0,1405000863,566019,-9.35912,29.78,-21.7661,38.0553,-8.47522,-0.498558,3.76062,9.28548,2.44408,5.73425,-0.646468,37.6844,7,0,0,0
0,1405000864,567021,-9.77619,30.2193,-22.4113,38.8722,-8.46667,-0.491548,3.7561,9.27547,1.2505,5.61877,-1.2431,37.7055,5,0,0,0
0,1405000865,568028,-9.06554,29.5889,-21.8576,37.8872,-8.43978,-0.524229,3.76617,9.25682,2.27953,6.45517,-1.92776,37.7428,7,0,0,0
0,1405000866,569036,-9.26858,29.7755,-22.3129,38.3452,-8.4728,-0.519767,3.82795,9.31192,0.644378,6.78732,-1.87361,37.8477,6,0,0,0
0,1405000867,570040,-9.35192,30.134,-22.1485,38.5496,-8.45877,-0.487036,3.72781,9.2566,0.558598,7.05386,-0.942047,37.8296,5,0,0,0
0,1405000868,571043,-9.22998,29.8867,-22.3302,38.4324,-8.46954,-0.502195,3.77902,9.28797,1.52422,7.06854,-1.63886,37.907,7,0,0,0
0,1405000869,572051,-8.95429,29.8817,-22.0535,38.2027,-8.48175,-0.495262,3.7836,9.30059,1.22258,7.35803,0.0995908,37.8895,5,0,0,0
0,1405000870,573052,-9.44582,29.4884,-21.9859,37.9759,-8.48843,-0.605674,3.7834,9.31313,0.955371,6.88624,-1.49285,37.9279,7,0,0,0
0,1405000871,574059,-9.32471,30.2671,-22.4968,38.8479,-8.46891,-0.576369,3.72768,9.27094,0.721803,7.46146,-2.3761,37.7194,6,0,0,0
0,1405000872,575063,-9.25917,30.2832,-22.055,38.5906,-8.46678,-0.522816,3.76166,9.27954,1.33404,6.36249,-2.27144,37.8961,7,0,0,0
0,1405000873,576064,-9.15379,29.9262,-22.3134,38.4351,-8.49057,-0.48646,3.77861,9.30614,2.09723,7.02309,-1.14814,37.8682,6,0,0,0
0,1405000874,577068,-9.26734,29.974,-22.3519,38.5218,-8.45349,-0.498512,3.75003,9.26136,2.83545,7.1219,-0.73298,37.9255,7,0,0,0
0,1405000875,578077,-9.31941,29.4337,-21.5895,37.6736,-8.48031,-0.484869,3.78269,9.29836,2.49431,6.74716,-1.02593,37.9425,6,0,0,0
0,1405000876,579080,-9.63366,29.3669,-22.2201,38.0652,-8.46902,-0.496594,3.75683,9.27818,1.11267,7.37552,-1.6477,37.9225,6,0,0,0
0,1405000877,580088,-9.29796,29.8093,-21.935,38.1601,-8.46161,-0.523205,3.78043,9.28247,1.12636,6.85236,-1.51855,37.9044,6,0,0,0
0,1405000878,581090,-9.17618,30.005,-22.2501,38.4651,-8.46971,-0.50078,3.76616,9.28282,1.5332,6.7683,0.0893792,38.0415,7,0,0,0
0,1405000879,582094,-9.24221,29.8681,-22.0388,38.2522,-8.46059,-0.499807,3.7668,9.2747,2.59594,7.21512,-1.67197,38.0762,6,0,0,0
0,1405000880,583097,-9.01921,29.4822,-21.8154,37.7684,-8.4765,-0.475917,3.73744,9.2761,2.13723,6.71564,-1.63824,37.9557,8,0,0,0
0,1405000881,584106,-9.07382,29.863,-21.9103,38.1339,-8.44249,-0.48371,3.77543,9.26086,1.8114,6.17597,-1.62594,37.9045,7,0,0,0
0,1405000882,585123,-9.25185,29.6149,-22.1138,38.1007,-8.4541,-0.499748,3.75481,9.26392,1.75079,7.5325,-1.9335,37.8928,8,0,0,0
0,1405000883,586128,-9.24154,29.8218,-21.938,38.1579,-8.46734,-0.502949,3.73816,9.26945,2.35861,7.06878,-1.13711,37.9143,8,0,0,0
0,1405000884,587131,-9.43443,29.6415,-22.4251,38.3473,-8.47876,-0.495331,3.77082,9.29268,0.0453591,6.48623,-1.89051,37.9828,7,0,0,0
0,1405000885,588136,-9.23981,29.8989,-22.0338,38.2728,-8.45885,-0.505963,3.78426,9.28056,2.59467,6.62936,-1.79866,37.964,6,0,0,0
0,1405000886,589144,-9.12708,30.1045,-22.0017,38.3883,-8.48546,-0.526941,3.76357,9.29759,1.57097,6.6352,-1.91592,37.8494,7,0,0,0
0,1405000887,590151,-9.03248,29.9231,-22.2156,38.3472,-8.4688,-0.50642,3.74145,9.2723,1.20172,6.23009,-1.24713,37.9653,8,0,0,0
0,1405000888,591152,-9.23706,29.8242,-22.2472,38.3372,-8.47558,-0.50177,3.76877,9.28929,2.36149,5.74894,-1.51226,37.9768,6,0,0,0
0,1405000889,592162,-9.30879,29.662,-22.47,38.3587,-8.46988,-0.486488,3.79977,9.2959,0.774053,6.91848,-0.690666,37.9396,7,0,0,0
0,1405000890,593174,-9.19376,29.6329,-22.1511,38.1223,-8.46857,-0.495602,3.78359,9.28859,1.3893,5.7893,-1.29926,38.0051,6,0,0,0
0,1405000891,594183,-9.86983,29.8229,-22.4316,38.6005,-8.45941,-0.519689,3.74892,9.26748,1.13519,7.12728,-2.21823,38.0385,7,0,0,0
0,1405000892,595184,-9.23459,29.7371,-22.1481,38.2114,-8.47892,-0.488813,3.77732,9.29512,1.34903,7.65985,-0.632706,38.0364,6,0,0,0
0,1405000893,596193,-9.1988,29.946,-21.9794,38.2685,-8.45415,-0.500244,3.77814,9.27347,1.04997,6.19796,-2.95594,37.9977,6,0,0,0
0,1405000894,597195,-9.18522,29.6939,-21.8898,38.0166,-8.47178,-0.4891,3.78367,9.2912,2.21036,6.53122,-1.86794,38.0746,7,0,0,0
0,1405000895,598196,-9.00005,29.5652,-22.4366,38.1904,-8.46537,-0.509069,3.80032,9.29322,2.65609,6.89649,-0.638862,38.0318,7,0,0,0
0,1405000896,599204,-9.23552,29.6336,-22.0926,38.0989,-8.48277,-0.502633,3.75947,9.29213,2.68681,6.95006,-0.208406,38.1323,5,0,0,0
0,1405000897,600212,-9.27012,30.0158,-21.9822,38.3419,-8.45978,-0.510753,3.75575,9.27008,2.88834,6.72011,-1.83471,38.053,8,0,0,0
0,1405000898,601219,-9.20597,30.1292,-22.4426,38.6807,-8.46995,-0.505294,3.77275,9.28596,1.5941,6.90156,-1.41347,38.1617,6,0,0,0
0,1405000899,602225,-9.3195,30.0374,-21.9072,38.3278,-8.46194,-0.504386,3.76851,9.27688,2.41622,6.97045,-0.46489,38.0875,6,0,0,0
0,1405000900,603229,-9.32919,29.404,-21.8076,37.7783,-8.47826,-0.520478,3.7637,9.2907,0.64333,7.64045,-2.06453,38.083,5,0,0,0
0,1405000901,604240,-9.34661,29.7114,-22.022,38.1457,-8.46752,-0.505114,3.77916,9.28634,1.62363,6.86877,-2.00191,38.061,6,0,0,0
0,1405000902,605250,-9.28029,29.6724,-22.0364,38.1075,-8.45969,-0.507612,3.77846,9.27906,1.10415,6.36505,-1.45357,38.066,6,0,0,0
0,1405000903,606254,-9.60294,29.4246,-22.4444,38.2332,-8.46416,-0.49813,3.78557,9.28551,1.51567,7.09704,-1.97819,38.0438,6,0,0,0
0,1405000904,607255,-9.02075,29.4739,-22.2196,37.9973,-8.44667,-0.519428,3.77189,9.26517,2.3219,7.47284,-1.36925,38.1044,6,0,0,0
0,1405000905,608264,-9.39284,30.0861,-22.311,38.6158,-8.45707,-0.519327,3.74567,9.264,1.89506,7.53215,-0.889637,38.1896,6,0,0,0
0,1405000906,609274,-9.18756,29.8216,-22.102,38.2393,-8.4709,-0.492855,3.76229,9.28191,0.680097,7.74004,-0.24698,38.1031,6,0,0,0
0,1405000907,610275,-9.206,29.5898,-21.8844,37.9373,-8.46835,-0.510997,3.74782,9.27471,2.95071,6.35304,-2.22785,38.2594,6,0,0,0
0,1405000908,611283,-9.34066,29.731,-21.7729,38.0164,-8.45722,-0.510103,3.79373,9.28316,2.21913,6.61076,-1.42759,38.2614,6,0,0,0
0,1405000909,612285,-9.21791,30.0161,-21.701,38.1689,-8.4781,-0.484359,3.76289,9.28828,2.4831,6.43965,-2.6668,38.1646,7,0,0,0
0,1405000910,613678,-10.0849,29.1531,-22.1975,38.0044,-8.47163,-0.493141,3.76286,9.28283,0.855993,5.77941,-1.43716,38.2216,3,0,0,0
0,1405000911,614692,-9.44442,30.0239,-22.4677,38.6708,-8.46813,-0.490535,3.75114,9.27474,0.828784,6.64847,-0.803902,38.1989,5,0,0,0
0,1405000912,615701,-8.93076,29.6445,-22.3738,38.1987,-8.4783,-0.48787,3.74917,9.28309,1.75531,7.0147,-3.33238,38.1806,7,0,0,0
0,1405000913,616705,-9.60209,29.4348,-22.6474,38.3603,-8.47421,-0.482666,3.74597,9.27779,0.841276,5.91461,-2.34878,38.1945,13,0,0,0
0,1405000914,617707,-9.6986,29.7421,-21.979,38.2326,-8.46164,-0.488912,3.76105,9.27275,1.7082,6.41611,-1.28658,38.1508,10,0,0,0
0,1405000915,618708,-9.48075,29.7599,-22.2292,38.3364,-8.47877,-0.521133,3.71047,9.26977,1.41213,6.17533,-1.77595,38.313,10,0,0,0
0,1405000916,619712,-9.23764,29.9101,-21.994,38.2581,-8.46913,-0.511861,3.7466,9.27498,1.91739,6.568,-0.744837,38.1927,10,0,0,0
0,1405000917,620715,-9.36582,30.0907,-22.5182,38.7329,-8.45618,-0.508642,3.78373,9.27805,2.55267,6.29215,-2.84122,38.239,11,0,0,0
0,1405000918,621717,-9.41882,29.6384,-22.3689,38.3082,-8.4696,-0.483926,3.76107,9.27976,1.30089,7.80842,-1.98201,38.1769,10,0,0,0
0,1405000919,622718,-9.62665,29.6842,-22.2554,38.3292,-8.49036,-0.504242,3.75708,9.29818,1.62447,6.47764,-2.61226,38.2146,10,0,0,0
0,1405000920,623722,-9.20233,29.4002,-21.8652,37.7775,-8.45722,-0.494361,3.73913,9.26014,2.02124,6.42089,-0.974,38.2293,11,0,0,0
0,1405000921,624728,-9.625,29.6735,-21.9672,38.1538,-8.47389,-0.488323,3.8023,9.30069,0.550292,7.78159,-2.15729,38.16,10,0,0,0
0,1405000922,625732,-9.39628,29.6204,-22.6108,38.4305,-8.48139,-0.473345,3.75834,9.28887,2.10958,6.22737,-2.74186,38.2795,10,0,0,0
0,1405000923,626735,-9.33265,29.6487,-22.2686,38.2365,-8.45305,-0.494104,3.76817,9.26808,1.28214,6.25231,-1.88675,38.3381,10,0,0,0
0,1405000924,627740,-9.68866,29.8482,-21.7451,38.179,-8.4806,-0.519546,3.8206,9.31598,2.32829,7.19269,-1.28027,38.2626,10,0,0,0
0,1405000925,628744,-9.40906,29.5177,-21.8077,37.8867,-8.47543,-0.526008,3.80143,9.30379,0.706012,6.07324,-1.48533,38.214,10,0,0,0
0,1405000926,629746,-9.26201,29.3316,-22.1483,37.9035,-8.43852,-0.514341,3.74258,9.24554,0.772349,6.43016,-1.43683,38.2627,10,0,0,0
0,1405000927,630750,-9.52924,29.6005,-21.5264,37.8204,-8.45912,-0.509361,3.78683,9.28204,1.50692,6.90671,-2.33383,38.3194,10,0,0,0
0,1405000928,631755,-9.36538,29.6514,-22.3378,38.287,-8.47844,-0.50195,3.76801,9.2916,0.909515,6.25588,-1.14502,38.3118,11,0,0,0
0,1405000929,632756,-9.72415,29.7923,-22.1343,38.3676,-8.46717,-0.483538,3.78839,9.28863,1.65336,7.24095,-1.40812,38.2694,10,0,0,0
0,1405000930,633762,-9.27789,29.4536,-22.239,38.0548,-8.48603,-0.501634,3.78134,9.30392,2.22622,7.28549,-1.49056,38.2849,10,0,0,0
0,1405000931,634764,-9.40395,29.7631,-22.2161,38.3123,-8.45954,-0.520613,3.7828,9.2814,1.48087,6.12769,-0.991056,38.3477,10,0,0,0
0,1405000932,635765,-9.48417,29.5703,-21.75,37.9132,-8.46436,-0.493488,3.77065,9.27937,1.03773,6.06571,-1.57641,38.294,10,0,0,0
0,1405000933,636767,-9.72834,30.159,-22.3986,38.806,-8.46696,-0.495254,3.72868,9.26487,1.5396,7.35223,-2.1183,38.2169,11,0,0,0
0,1405000934,637769,-9.5142,29.9558,-22.2652,38.5177,-8.47187,-0.510853,3.75457,9.28065,1.59626,7.3865,-2.17168,38.3247,11,0,0,0
0,1405000935,638771,-9.26799,29.2996,-22.2856,37.9606,-8.46609,-0.521299,3.74115,9.27053,2.10687,6.91784,-2.32877,38.2328,9,0,0,0
0,1405000936,639776,-9.34013,29.8835,-22.3312,38.457,-8.45016,-0.41442,3.75428,9.25589,1.97805,7.4363,-2.04178,38.3275,10,0,0,0
0,1405000937,640782,-9.40547,29.7822,-22.1212,38.2726,-8.46979,-0.520017,3.76573,9.28378,2.66677,7.3874,-2.78269,38.3308,11,0,0,0
0,1405000938,641785,-9.36687,29.8784,-21.9911,38.2631,-8.43033,-0.449945,3.74865,9.23717,1.93188,6.30389,-1.4003,38.2664,11,0,0,0
0,1405000939,642789,-9.49223,29.6776,-21.6721,37.9544,-8.46717,-0.539307,3.80108,9.29689,2.23057,6.54646,-1.54628,38.3289,10,0,0,0
0,1405000940,643790,-9.23364,30.0766,-22.3434,38.5887,-8.46734,-0.478379,3.74962,9.27277,1.58746,6.67244,-1.95874,38.2173,11,0,0,0
0,1405000941,644794,-9.49968,30.2809,-22.084,38.6637,-8.45853,-0.487578,3.75076,9.26567,0.641751,7.47509,-1.55369,38.2154,10,0,0,0
0,1405000942,645797,-9.36404,29.8657,-22.3424,38.4555,-8.45674,-0.49385,3.73147,9.25657,1.14756,5.77683,-2.6253,38.366,10,0,0,0
0,1405000943,646803,-9.54494,29.4192,-21.9603,37.9322,-8.46813,-0.505407,3.77028,9.2833,1.41602,7.01181,-1.21056,38.3614,10,0,0,0
0,1405000944,647811,-9.54788,30.0291,-21.7759,38.3027,-8.4588,-0.494054,3.78911,9.28185,2.45601,6.88082,-1.63729,38.3036,11,0,0,0
0,1405000945,648816,-9.66228,29.5891,-22.3292,38.3075,-8.48561,-0.487091,3.74393,9.28762,2.31066,6.69994,-1.0897,38.3506,11,0,0,0
0,1405000946,649817,-9.50124,30.2275,-21.8794,38.5056,-8.46848,-0.507006,3.80694,9.29866,2.17958,6.41107,-2.01527,38.4252,9,0,0,0
0,1405000947,650821,-9.53231,29.6884,-22.3254,38.3496,-8.46303,-0.489173,3.77845,9.2811,1.57171,6.10109,-1.67445,38.4527,10,0,0,0
0,1405000948,651824,-9.50795,30.0017,-22.5529,38.7187,-8.48899,-0.485091,3.75455,9.29489,1.52006,6.91788,-1.12303,38.391,10,0,0,0
0,1405000949,652827,-9.26418,29.2611,-22.3325,37.9576,-8.47591,-0.503602,3.73826,9.27735,1.43543,6.91786,-1.34972,38.4667,11,0,0,0
0,1405000950,653831,-10.0755,29.6266,-22.2869,38.4182,-8.46802,-0.47855,3.7642,9.27931,1.59347,6.35016,-1.88836,38.4938,10,0,0,0
0,1405000951,654834,-9.39921,29.5909,-22.3303,38.2441,-8.46394,-0.44409,3.74945,9.2679,1.58248,7.01804,-1.40147,38.4927,10,0,0,0
0,1405000952,655838,-9.53165,29.0503,-22.3514,37.8729,-8.47918,-0.462563,3.79703,9.30203,1.0265,6.73636,-1.963,38.4465,11,0,0,0
0,1405000953,656842,-9.20633,29.8298,-22.5208,38.4937,-8.45375,-0.500095,3.75432,9.26341,0.940133,7.72233,-1.81412,38.4234,11,0,0,0
0,1405000954,657843,-9.95599,29.2915,-21.9251,37.9186,-8.46563,-0.513528,3.82078,9.3021,1.89638,7.14454,-2.02126,38.4425,10,0,0,0
0,1405000955,658844,-9.07551,29.7703,-22.0559,38.1458,-8.45026,-0.495799,3.76305,9.26354,1.61899,7.08177,-1.00623,38.4882,10,0,0,0
0,1405000956,659846,-9.13453,29.5044,-22.2587,38.0709,-8.44256,-0.496297,3.78723,9.26641,0.871185,5.42069,-1.77831,38.4623,10,0,0,0
0,1405000957,660852,-9.3071,29.8937,-21.7358,38.1143,-8.45196,-0.48907,3.76013,9.26355,2.01981,6.20226,-1.70623,38.3783,10,0,0,0
0,1405000958,661853,-9.47529,29.6168,-21.895,38.0306,-8.48356,-0.500171,3.77737,9.29998,1.34873,6.98699,-1.63191,38.4589,10,0,0,0
0,1405000959,662857,-9.28388,29.5425,-22.4069,38.2233,-8.46034,-0.48754,3.75232,9.26796,2.1189,7.51412,-1.25931,38.4254,10,0,0,0
0,1405000960,663861,-9.48724,29.584,-21.8802,37.9995,-8.4677,-0.470713,3.76049,9.27711,0.740995,5.78201,-2.45893,38.5225,9,0,0,0
0,1405000961,664862,-9.61502,30.0899,-22.0192,38.5058,-8.47175,-0.500088,3.78255,9.2913,2.0845,5.87475,-1.98092,38.5857,9,0,0,0
0,1405000962,665863,-8.94301,29.6139,-21.9879,37.9529,-8.47667,-0.517382,3.76798,9.29082,0.154058,7.47522,-1.17326,38.43,10,0,0,0
0,1405000963,666865,-9.25752,29.7948,-22.2758,38.336,-8.45735,-0.504306,3.77428,9.27504,1.58433,5.88182,-2.13056,38.4734,10,0,0,0
0,1405000964,667870,-9.78201,29.1191,-22.1109,37.8484,-8.44857,-0.488842,3.77129,9.26499,1.35052,6.83777,-2.25724,38.4598,10,0,0,0
0,1405000965,668874,-8.92696,30.0629,-22.5002,38.597,-8.47738,-0.519377,3.77839,9.2958,1.33721,6.6245,-1.95132,38.4721,10,0,0,0
0,1405000966,669875,-9.67697,29.6258,-22.326,38.3377,-8.47391,-0.502038,3.75724,9.28311,1.88667,6.66003,-1.60214,38.4535,10,0,0,0
0,1405000967,670880,-9.39381,29.9523,-22.2315,38.4659,-8.45381,-0.502484,3.75602,9.26429,1.17016,6.2552,-1.01083,38.5032,10,0,0,0
0,1405000968,671885,-9.71421,30.2532,-22.8282,39.1248,-8.47399,-0.462814,3.73315,9.27142,2.79782,6.48476,-1.61495,38.5127,11,0,0,0
0,1405000969,672891,-9.33285,28.9157,-22.4097,37.7546,-8.48468,-0.484068,3.75077,9.28937,2.41176,7.00629,-1.76891,38.4473,11,0,0,0
0,1405000970,673895,-9.74169,29.6176,-21.3839,37.8071,-8.48268,-0.509391,3.76105,9.29305,1.12803,5.83192,-0.895534,38.4486,10,0,0,0
0,1405000971,674900,-9.6982,29.3876,-21.8375,37.8756,-8.48201,-0.519165,3.84281,9.32638,1.87342,6.38791,-1.95334,38.4765,10,0,0,0
0,1405000972,675902,-9.11865,29.2921,-22.2636,37.9057,-8.46414,-0.496397,3.76215,9.27587,2.12069,6.47873,-1.85338,38.4745,10,0,0,0
0,1405000973,676903,-9.22292,29.6608,-22.4508,38.3258,-8.47435,-0.440596,3.7819,9.2904,1.45119,6.7095,-2.10882,38.4808,10,0,0,0
0,1405000975,678297,-9.39445,29.6376,-22.4858,38.37,-8.47408,-0.473968,3.78593,9.29344,1.43039,5.30035,-0.999207,38.4341,1,0,0,0
0,1405000976,679304,-9.39533,29.4725,-21.7259,37.801,-8.45695,-0.512594,3.78247,9.27846,2.42264,4.86332,-1.31658,38.4936,6,0,0,0
0,1405000977,680305,-9.39613,29.9204,-22.3961,38.5371,-8.4889,-0.493121,3.77211,9.30233,2.0875,6.43202,-2.76649,38.6234,6,0,0,0
0,1405000978,681312,-9.39239,29.5804,-22.3447,38.2427,-8.45501,-0.507527,3.76182,9.26801,2.48864,5.98365,-0.766548,38.6475,5,0,0,0
0,1405000979,682318,-9.53907,29.8325,-22.5549,38.5965,-8.46044,-0.5038,3.76019,9.27211,1.30226,7.41997,-2.46325,38.6986,6,0,0,0
0,1405000980,683325,-9.25182,29.2937,-22.1974,37.9004,-8.4408,-0.496024,3.76523,9.25582,2.50248,5.77338,-1.58062,38.5986,7,0,0,0
0,1405000981,684329,-9.39418,29.947,-22.0216,38.3409,-8.47792,-0.488594,3.78593,9.2977,0.730019,7.0456,-1.86576,38.4975,8,0,0,0
0,1405000982,685333,-9.53887,29.9847,-22.4728,38.6665,-8.47339,-0.516973,3.79835,9.30016,2.51714,7.95362,-2.25567,38.5824,6,0,0,0
0,1405000983,686336,-9.11651,29.8705,-21.7568,38.062,-8.45875,-0.47529,3.75306,9.26616,1.73416,6.54156,-1.2335,38.6626,6,0,0,0
0,1405000984,687342,-8.99603,29.5355,-22.2848,38.0774,-8.48244,-0.501858,3.79601,9.30663,0.930147,6.26577,-1.44464,38.747,5,0,0,0
0,1405000985,688347,-9.15935,29.4771,-22.2185,38.0323,-8.47691,-0.514105,3.77173,9.29238,2.34296,6.46606,-2.03629,38.7428,6,0,0,0
0,1405000986,689356,-9.34747,29.1828,-22.2986,37.8977,-8.45712,-0.480637,3.75177,9.26443,1.48751,7.44163,-1.85035,38.6809,6,0,0,0
0,1405000987,690364,-9.43129,29.691,-21.8539,38.0539,-8.47907,-0.509218,3.80816,9.30892,2.59558,7.34916,-1.68909,38.5571,7,0,0,0
0,1405000988,691372,-9.62443,30.2012,-21.6001,38.3576,-8.45128,-0.47481,3.75906,9.26176,1.18399,6.19609,-1.39475,38.7265,7,0,0,0
0,1405000989,692373,-8.98368,29.4787,-21.7999,37.7483,-8.49341,-0.559978,3.74364,9.29874,1.80688,6.49297,-2.22044,38.6471,6,0,0,0
0,1405000990,693376,-9.12708,29.7349,-22.3173,38.2823,-8.4539,-0.51699,3.7751,9.27292,0.973512,7.46444,-1.3696,38.8514,6,0,0,0
0,1405000991,694377,-9.57176,29.7828,-21.9401,38.2099,-8.46908,-0.51273,3.78294,9.28972,1.47151,6.08186,-1.3038,38.7147,7,0,0,0
0,1405000992,695390,-9.52023,29.7783,-22.3127,38.4088,-8.47794,-0.508309,3.76585,9.29061,1.92313,7.17234,-2.18613,38.8161,7,0,0,0
0,1405000993,696396,-9.61089,29.788,-22.3422,38.4561,-8.45999,-0.50942,3.75396,9.26947,-0.149589,7.12666,-1.25688,38.7251,7,0,0,0
0,1405000994,697400,-9.56764,30.0809,-22.5193,38.7753,-8.47085,-0.507009,3.75285,9.27881,0.428497,7.31491,-1.01124,38.7415,6,0,0,0
0,1405000995,698401,-9.84324,29.574,-22.136,38.2297,-8.46133,-0.497794,3.76165,9.27318,2.84574,8.05568,-0.696121,38.8406,7,0,0,0
0,1405000996,699409,-9.71042,29.6486,-22.1052,38.2357,-8.48418,-0.508042,3.75307,9.29112,-0.7248,7.7672,-1.14482,38.7453,6,0,0,0
0,1405000997,700416,-9.70972,29.7662,-22.1081,38.3285,-8.46029,-0.485378,3.77805,9.27824,0.638436,6.68023,-1.19002,38.8154,6,0,0,0
0,1405000998,701419,-9.27611,29.3914,-22.2735,38.0264,-8.48219,-0.507355,3.75009,9.28806,1.09105,6.48431,-1.47151,38.7208,7,0,0,0
0,1405000999,702423,-9.5453,29.48,-22.1593,38.0948,-8.48079,-0.513569,3.71849,9.27442,0.556722,6.78376,-1.21062,38.6978,7,0,0,0
0,1405001000,703428,-9.68685,29.3186,-21.9527,37.8859,-8.46982,-0.512981,3.77751,9.28819,0.709612,7.53888,-1.45385,38.7306,7,0,0,0
0,1405001001,704437,-9.22886,29.4069,-21.9544,37.8409,-8.46931,-0.505371,3.77502,9.2863,2.38263,6.48493,-2.15286,38.8396,7,0,0,0
0,1405001002,705443,-9.29811,29.6962,-22.2873,38.2758,-8.46661,-0.507014,3.74329,9.27107,0.833307,8.10244,-0.952205,38.7914,5,0,0,0
0,1405001003,706456,-9.64643,30.1732,-22.2665,38.7205,-8.47967,-0.485969,3.76729,9.29158,2.04736,6.01978,-1.33018,38.8016,7,0,0,0
0,1405001004,707461,-9.12474,29.5454,-21.9916,37.945,-8.48938,-0.51484,3.78026,9.30725,1.50029,6.0338,-1.116,38.6508,6,0,0,0
0,1405001005,708462,-9.43637,29.51,-22.1647,38.0941,-8.47158,-0.507096,3.75991,9.28233,0.878654,6.23566,-1.97842,38.8857,5,0,0,0
0,1405001006,709467,-9.64968,29.9571,-22.6185,38.7574,-8.47852,-0.488937,3.7638,9.28927,0.710057,6.15733,-1.36629,38.8027,8,0,0,0
0,1405001007,710471,-9.15244,29.6349,-22.2469,38.1696,-8.45109,-0.502367,3.73356,9.25271,1.77558,6.05434,-0.788574,38.7391,7,0,0,0
0,1405001008,711484,-9.4804,30.0863,-22.163,38.5521,-8.47229,-0.500954,3.77525,9.28888,1.33608,7.14703,-1.62375,38.8096,7,0,0,0
0,1405001009,712488,-9.28647,29.3531,-22.3759,38.0595,-8.47979,-0.501214,3.7499,9.28546,-0.6359,8.0074,-1.96136,38.8532,5,0,0,0
0,1405001010,713494,-9.35343,29.7688,-22.497,38.4679,-8.47124,-0.495091,3.78683,9.29232,0.665182,6.81638,-3.46067,38.78,7,0,0,0
0,1405001011,714502,-9.8582,29.8233,-22.3555,38.5536,-8.47923,-0.50182,3.80129,9.30585,2.77352,6.43933,-0.775694,38.8568,6,0,0,0
0,1405001012,715508,-9.26737,29.4391,-22.2454,38.0448,-8.46579,-0.496077,3.76961,9.28039,1.67223,7.08759,-1.25048,38.7704,6,0,0,0
0,1405001013,716509,-9.7282,29.6805,-22.7386,38.6344,-8.46397,-0.510037,3.75917,9.27525,2.37802,6.91256,-2.03091,38.7057,6,0,0,0
0,1405001014,717517,-9.56478,29.7195,-22.2192,38.32,-8.45437,-0.504762,3.75264,9.26356,1.48207,6.24679,-2.22866,38.8087,6,0,0,0
0,1405001015,718937,-9.62352,29.584,-22.5163,38.4033,-8.4756,-0.50182,3.76619,9.28826,1.08852,6.74184,-1.56845,38.7323,3,0,0,0
0,1405001016,719941,-9.47323,29.7577,-22.6077,38.5535,-8.46629,-0.493956,3.75634,9.27535,1.98547,6.71049,-1.84322,38.8129,7,0,0,0
0,1405001017,720944,-9.63153,29.701,-22.239,38.3339,-8.44441,-0.515138,3.76952,9.26189,2.11641,7.30952,-3.084,38.7344,7,0,0,0
0,1405001018,721951,-9.16394,29.4458,-22.245,38.0246,-8.47838,-0.507604,3.77567,9.29496,1.08174,6.85113,-2.25466,38.6675,7,0,0,0
0,1405001019,722960,-9.094,29.1965,-22.1326,37.749,-8.47168,-0.485873,3.73613,9.27169,1.47924,7.20885,-1.67465,38.8499,7,0,0,0
0,1405001020,723963,-9.47148,29.7009,-22.8191,38.6337,-8.46735,-0.485465,3.76546,9.27956,1.93587,7.002,-2.11361,38.9339,7,0,0,0
0,1405001021,724967,-9.78292,29.3918,-22.0951,38.0497,-8.46508,-0.505393,3.77184,9.28115,0.0430819,6.32907,-1.30358,38.9647,6,0,0,0
0,1405001022,725975,-9.47613,29.4965,-22.0357,38.0186,-8.48776,-0.507919,3.76044,9.29736,1.62233,6.36644,-2.23025,38.9664,7,0,0,0
0,1405001023,726981,-9.46432,29.9382,-22.3946,38.5666,-8.4758,-0.49904,3.79099,9.29838,1.47857,7.05184,-2.2152,39.0076,6,0,0,0
0,1405001024,727984,-9.37513,30.1305,-22.5582,38.7893,-8.47376,-0.509498,3.75341,9.28182,2.45149,6.24636,-2.30967,38.8942,7,0,0,0
0,1405001025,728988,-9.75729,29.823,-22.4751,38.5972,-8.47255,-0.515576,3.75198,9.28048,0.974047,6.90171,-2.23249,38.9284,7,0,0,0
0,1405001026,729994,-9.26113,29.2896,-22.42,38.0303,-8.46721,-0.494281,3.76781,9.28086,2.23105,6.91678,-1.139,38.941,7,0,0,0
0,1405001027,730999,-9.4253,29.7157,-22.4776,38.4331,-8.47071,-0.503907,3.74457,9.27516,3.14538,6.87597,-2.75993,38.8778,7,0,0,0
0,1405001029,732000,-9.58758,29.7277,-22.6287,38.5709,-8.4795,-0.494397,3.74634,9.28339,1.44973,6.177,-1.15392,38.8768,6,0,0,0
0,1405001030,733004,-9.58183,29.2873,-22.1286,37.9372,-8.4928,-0.502841,3.79033,9.31381,1.85391,8.0738,-2.32878,38.9038,7,0,0,0
0,1405001031,734005,-9.58477,29.2874,-22.234,37.9996,-8.46287,-0.517715,3.75614,9.27344,2.10884,6.94237,-2.81851,39.0265,7,0,0,0
0,1405001032,735013,-9.65894,29.9131,-22.8341,38.8521,-8.47429,-0.488188,3.76503,9.28587,1.44324,7.17815,-1.62553,39.0598,6,0,0,0
0,1405001033,736022,-9.291,29.8625,-22.0118,38.2441,-8.46013,-0.526623,3.73875,9.26442,2.11787,6.14647,-1.93642,39.0413,7,0,0,0
0,1405001034,737026,-9.39951,28.9619,-22.5264,37.8759,-8.46092,-0.495329,3.78297,9.28135,1.56652,6.24851,-1.13298,39.019,6,0,0,0
0,1405001035,738036,-9.71562,29.5465,-22.2116,38.2197,-8.46676,-0.509839,3.78231,9.28718,0.363114,6.97214,-2.11001,38.9721,7,0,0,0
0,1405001036,739039,-9.84452,29.3353,-22.3662,38.1801,-8.47577,-0.481928,3.76537,9.28703,1.80666,6.37364,-1.25351,39.017,6,0,0,0
0,1405001037,740043,-9.31458,28.9147,-22.3046,37.6871,-8.47081,-0.503466,3.74998,9.27742,1.47697,7.70949,-2.07163,39.0503,6,0,0,0
0,1405001038,741049,-9.59309,29.2829,-22.6171,38.2236,-8.46759,-0.521846,3.78873,9.29123,0.283274,7.38737,-2.69202,39.0389,7,0,0,0
0,1405001039,742058,-9.78989,29.387,-22.5778,38.3301,-8.45451,-0.513771,3.78891,9.27893,0.816406,6.70327,-0.948108,39.0538,6,0,0,0
0,1405001040,743063,-9.94114,29.0955,-22.488,38.0931,-8.4678,-0.503259,3.76946,9.28255,2.06226,6.9293,-4.25759,39.1461,7,0,0,0
0,1405001041,744065,-10.0236,29.1908,-22.3873,38.1283,-8.45883,-0.505471,3.77326,9.27603,1.85271,5.50652,-1.40666,38.8946,5,0,0,0
0,1405001042,745071,-9.78965,28.7873,-22.3743,37.7513,-8.47038,-0.505584,3.75481,9.27909,1.49716,6.60816,-2.17485,39.1809,6,0,0,0
0,1405001043,746094,-9.62652,29.2701,-22.7554,38.3043,-8.45588,-0.505695,3.75347,9.26532,1.97871,6.72789,-0.993596,39.0946,6,0,0,0
0,1405001044,747097,-9.84513,29.2913,-22.6028,38.2857,-8.47236,-0.497262,3.74093,9.27485,2.90902,6.76389,-1.14724,39.0388,5,0,0,0
0,1405001045,748101,-9.56576,29.1297,-22.0852,37.7862,-8.46633,-0.515711,3.76247,9.27906,2.61455,6.82816,-1.92011,39.1316,5,0,0,0
0,1405001046,749106,-9.41993,28.8097,-22.4972,37.7473,-8.47846,-0.479225,3.76125,9.28768,1.70422,7.25841,-1.25146,39.2271,6,0,0,0
0,1405001047,750113,-9.34905,28.8781,-23.1079,38.1488,-8.47883,-0.506109,3.76566,9.29123,3.29482,6.39989,-2.10814,39.2268,7,0,0,0
0,1405001048,751119,-9.16205,29.2676,-22.6424,38.1211,-8.44749,-0.50145,3.76861,9.26358,1.45194,7.49196,-1.86287,39.1889,7,0,0,0
0,1405001049,752133,-9.28663,29.1905,-22.9111,38.2524,-8.49472,-0.50067,3.76665,9.30584,0.294378,7.25303,-1.93705,39.0347,6,0,0,0
0,1405001050,753136,-9.29851,29.3312,-23.2898,38.5901,-8.48029,-0.494216,3.78214,9.29861,2.13877,7.33061,-0.987923,39.0885,7,0,0,0
0,1405001051,754143,-9.51175,29.3291,-22.3835,38.101,-8.46174,-0.489915,3.75897,9.27205,0.921999,6.91424,-1.03667,39.1371,6,0,0,0
0,1405001052,755146,-9.37339,29.8859,-22.9089,38.8052,-8.47621,-0.490603,3.7657,9.28802,3.36751,6.69864,-1.79235,39.1891,6,0,0,0
0,1405001053,756148,-9.02879,29.1239,-23.0362,38.215,-8.47,-0.497446,3.74007,9.27235,1.51156,6.4853,-2.87681,39.0936,6,0,0,0
0,1405001054,757155,-9.41543,29.6417,-23.0166,38.6917,-8.4556,-0.507082,3.76293,9.26897,1.52246,7.67676,-1.94152,39.1005,7,0,0,0
0,1405001055,758158,-9.52357,29.2832,-23.0316,38.4534,-8.47243,-0.512767,3.74013,9.27543,3.36272,7.19008,-1.55341,39.0932,7,0,0,0
0,1405001056,759163,-9.17765,29.7844,-23.1786,38.8405,-8.45,-0.503668,3.81543,9.28514,2.35836,6.76782,-0.702927,39.0607,6,0,0,0
0,1405001057,760166,-9.34908,29.2579,-22.7222,38.2064,-8.47205,-0.503968,3.7797,9.29063,0.4465,6.23275,-1.07941,39.1807,7,0,0,0
0,1405001058,761170,-9.44854,29.1144,-22.8308,38.1859,-8.45924,-0.481927,3.75764,9.26881,0.915283,6.60495,-1.2244,39.2461,7,0,0,0
0,1405001059,762179,-9.11678,29.3872,-23.1581,38.51,-8.48971,-0.504087,3.73444,9.28845,1.84497,7.00165,-1.52085,39.1934,6,0,0,0
0,1405001060,763180,-9.12475,29.4634,-22.8636,38.3939,-8.52163,-0.538962,3.66721,9.29285,2.59612,7.70098,-1.11369,39.1952,7,0,0,0
0,1405001061,764184,-9.18917,29.2102,-22.963,38.275,-8.4998,-0.390983,3.75378,9.30001,0.613397,7.87061,-1.56072,39.3689,6,0,0,0
0,1405001062,765188,-9.3801,29.3195,-22.4471,38.0984,-8.4924,-0.513154,3.7592,9.30138,1.86404,8.95692,-1.50887,39.3316,7,0,0,0
0,1405001063,766191,-9.35302,29.2389,-22.8192,38.2506,-8.48145,-0.515765,3.76134,9.2924,-0.4675,7.52217,-2.83612,39.3607,6,0,0,0
0,1405001064,767197,-9.60095,29.511,-22.6876,38.4423,-8.43513,-0.484952,3.812,9.26919,2.2313,7.34573,-1.39105,39.2767,6,0,0,0
0,1405001065,768207,-9.62896,29.7289,-22.6121,38.5724,-8.48518,-0.486777,3.77316,9.29904,1.65141,6.61953,-1.586,39.4087,7,0,0,0
0,1405001066,769213,-9.64942,29.7069,-22.7565,38.6454,-8.53988,-0.420203,3.64543,9.29491,0.554794,6.93948,-1.56456,39.3068,6,0,0,0
0,1405001067,770218,-9.04299,29.3031,-22.5449,38.062,-8.45482,-0.50112,3.76478,9.26869,0.697107,6.68474,-3.5432,39.2805,7,0,0,0
0,1405001068,771226,-9.98101,29.5107,-22.8109,38.6114,-8.39481,-0.519085,3.74982,9.20888,3.18795,10.1064,-2.20624,39.3402,5,0,0,0
0,1405001069,772228,-8.95138,29.1485,-22.9117,38.1406,-8.47145,-0.516449,3.73002,9.27067,-0.199226,4.85666,-2.4242,39.2529,7,0,0,0
0,1405001070,773231,-9.22525,29.1905,-22.4612,37.9697,-8.47917,-0.512878,3.75569,9.28787,0.730179,6.90127,-1.87696,39.3027,7,0,0,0
0,1405001071,774236,-9.21207,29.8564,-22.6003,38.5622,-8.44966,-0.494996,3.75164,9.25832,1.32098,7.87047,-0.994585,39.2443,7,0,0,0
0,1405001072,775246,-9.07263,29.2197,-22.6706,38.0797,-8.48745,-0.480515,3.74199,9.28817,2.36061,7.43131,-2.0124,39.3259,7,0,0,0
0,1405001073,776255,-9.51757,29.5729,-22.688,38.4693,-8.45584,-0.557188,3.8196,9.29522,0.353149,7.63422,-1.54322,39.3486,7,0,0,0
0,1405001074,777263,-9.14971,29.4709,-23.1548,38.5797,-8.47586,-0.558186,3.75999,9.28921,1.99358,7.23889,-1.82014,39.1699,7,0,0,0
0,1405001075,778273,-9.48358,29.5196,-22.2947,38.189,-8.48034,-0.515144,3.7793,9.29864,0.655175,7.59501,-0.808849,39.2615,7,0,0,0
0,1405001076,779280,-9.26268,29.0181,-22.2385,37.7147,-8.47874,-0.531669,3.80532,9.30871,0.662051,6.4318,-1.60122,39.4189,7,0,0,0
0,1405001077,780281,-9.63777,29.7728,-22.8658,38.7576,-8.47409,-0.502536,3.7765,9.29111,0.200818,7.33764,-2.56971,39.3579,8,0,0,0
0,1405001078,781285,-9.93655,29.2943,-22.8704,38.4701,-8.46217,-0.518321,3.76528,9.27654,1.25394,7.73906,-1.33711,39.3784,7,0,0,0
0,1405001079,782287,-9.34106,29.4014,-22.9897,38.4737,-8.46835,-0.479389,3.78777,9.28924,0.81322,7.38901,-2.29851,39.4594,7,0,0,0
0,1405001080,783298,-9.54537,29.4714,-22.3836,38.2192,-8.48202,-0.536252,3.7491,9.28914,0.816355,6.31902,-1.17358,39.5052,5,0,0,0
0,1405001081,784302,-9.66811,29.2431,-22.9999,38.4399,-8.47494,-0.505087,3.76372,9.28684,1.86024,7.02841,-1.63647,39.4552,6,0,0,0
0,1405001082,785303,-9.42452,29.3934,-22.6086,38.2615,-8.46338,-0.491649,3.78388,9.28376,-0.00745621,8.15841,-1.59821,39.5264,8,0,0,0
0,1405001083,786307,-9.96104,29.8775,-22.748,38.8505,-8.51993,-0.500745,3.7089,9.3057,0.807821,6.68322,-0.350252,39.4604,6,0,0,0
0,1405001084,787311,-10.015,29.4194,-23.0933,38.7183,-8.47388,-0.494736,3.79506,9.29805,0.470911,8.07517,-1.07583,39.5388,7,0,0,0
0,1405001085,788312,-9.55571,29.8645,-22.4691,38.5754,-8.51308,-0.416348,3.73083,9.30403,0.895129,7.89525,-1.81321,39.6619,6,0,0,0
0,1405001086,789318,-9.66228,30.0321,-22.5767,38.7942,-8.43339,-0.590476,3.80456,9.27068,2.9579,7.86943,-2.08587,39.6994,8,0,0,0
0,1405001087,790320,-9.70439,29.5187,-22.8332,38.5601,-8.46141,-0.569014,3.80152,9.29359,0.727802,7.23106,-1.18805,39.6677,6,0,0,0
0,1405001088,791321,-9.61967,29.6932,-22.9251,38.727,-8.45609,-0.512038,3.73306,9.25761,1.89783,6.84332,-1.80977,39.5741,6,0,0,0
0,1405001089,792323,-9.75985,29.5843,-22.941,38.6882,-8.47724,-0.493307,3.76277,9.28792,2.35243,8.16093,-1.94518,39.6068,6,0,0,0
0,1405001090,793326,-9.8164,29.3174,-21.8598,37.8645,-8.47415,-0.488184,3.80024,9.30008,2.23024,7.22627,-1.44977,39.683,6,0,0,0
0,1405001091,794336,-9.27165,29.4337,-22.7547,38.3417,-8.46376,-0.505079,3.79323,9.28865,1.06642,6.67641,-1.28978,39.6295,5,0,0,0
0,1405001092,795338,-8.96145,29.7604,-22.4646,38.349,-8.47129,-0.490752,3.75084,9.27752,2.36598,8.07874,-1.17778,39.5911,6,0,0,0
0,1405001093,796346,-9.24655,29.5359,-22.777,38.4273,-8.46967,-0.524348,3.78529,9.29186,1.05791,6.97636,-1.8878,39.7331,7,0,0,0
0,1405001094,797350,-9.42798,29.2444,-22.5583,38.1183,-8.45755,-0.526796,3.76968,9.2746,0.706334,7.2982,-1.68815,39.7018,6,0,0,0
0,1405001095,798357,-9.34109,29.8236,-22.6503,38.5972,-8.48928,-0.509999,3.7134,9.27994,1.69123,6.59621,-1.22467,39.6578,6,0,0,0
0,1405001096,799360,-9.38228,29.153,-22.7003,38.1212,-8.45668,-0.502285,3.78119,9.27713,-0.248137,6.51453,-1.3885,39.6693,7,0,0,0
0,1405001097,800363,-9.92479,29.4267,-22.5893,38.4019,-8.47564,-0.553469,3.73316,9.27789,-0.366672,6.76761,-2.07726,39.6895,7,0,0,0
0,1405001098,801366,-9.28034,29.4515,-22.588,38.2588,-8.46879,-0.563899,3.76535,9.28527,0.840592,7.89517,-0.603169,39.6018,6,0,0,0
0,1405001099,802372,-9.44633,29.4034,-22.325,38.1077,-8.46242,-0.630215,3.75728,9.28046,1.1567,6.82497,-0.333859,39.6109,7,0,0,0
0,1405001100,803380,-9.5586,29.3669,-22.6571,38.3031,-8.48165,-0.524054,3.75644,9.29106,1.29415,6.99803,-1.54726,39.6258,7,0,0,0
0,1405001101,804391,-9.28336,29.0916,-22.4509,37.9018,-8.46622,-0.502464,3.75635,9.27575,1.28772,6.85236,-2.56891,39.5254,6,0,0,0
0,1405001102,805398,-9.69116,29.5907,-22.4489,38.3859,-8.45198,-0.470606,3.77452,9.26846,1.25401,6.73162,-1.05574,39.6746,7,0,0,0
0,1405001103,806406,-9.60393,29.7778,-22.7223,38.6686,-8.48281,-0.486729,3.7663,9.29409,1.89903,7.428,-2.29911,39.5972,7,0,0,0
0,1405001104,807407,-9.26275,29.8039,-22.9777,38.7562,-8.48378,-0.508507,3.77451,9.29946,1.15969,7.68569,-1.99126,39.6447,7,0,0,0
0,1405001105,808409,-9.60729,29.5879,-22.5718,38.4347,-8.46334,-0.503427,3.72213,9.25937,1.22176,7.38265,-2.01319,39.6429,6,0,0,0
0,1405001106,809411,-9.26144,29.4557,-22.788,38.3758,-8.47214,-0.489146,3.79304,9.29535,2.27312,6.70779,-2.00266,39.4931,6,0,0,0
0,1405001107,810412,-9.3773,29.0307,-22.6254,37.9819,-8.48223,-0.479163,3.78986,9.30274,2.0351,6.95941,-0.950295,39.6906,6,0,0,0
0,1405001108,811415,-9.31819,29.2849,-22.4636,38.0664,-8.45857,-0.492524,3.75956,9.26953,0.397205,6.35278,-2.98316,39.6315,6,0,0,0
0,1405001109,812416,-9.30151,29.5905,-22.5398,38.3426,-8.49289,-0.4926,3.74988,9.29696,1.67373,7.63317,-1.38325,39.5792,7,0,0,0
0,1405001110,813422,-9.30447,29.5401,-22.9697,38.559,-8.48667,-0.512281,3.74715,9.29124,0.338742,7.32441,-0.189888,39.5583,7,0,0,0
0,1405001111,814424,-9.73005,30.0107,-22.5751,38.7937,-8.48947,-0.4907,3.7582,9.29709,1.84217,6.71397,-1.29332,39.5729,6,0,0,0
0,1405001112,815426,-9.22935,29.3563,-22.7631,38.2771,-8.45981,-0.507846,3.78378,9.28134,1.43724,6.10083,-1.35138,39.5824,7,0,0,0
0,1405001113,816428,-9.73525,29.8096,-22.7229,38.7262,-8.47615,-0.537549,3.75825,9.28754,-0.838591,6.66887,-1.98616,39.6076,6,0,0,0
0,1405001114,817429,-9.54397,29.6173,-22.6763,38.5031,-8.46791,-0.521847,3.7412,9.27224,2.21438,6.68406,-1.4278,39.6346,8,0,0,0
0,1405001115,818435,-9.53937,29.548,-22.6245,38.4181,-8.48162,-0.504264,3.75961,9.29122,0.913467,6.41249,-1.21374,39.659,7,0,0,0
0,1405001116,819438,-9.67838,29.9332,-22.4121,38.626,-8.52741,-0.536626,3.71704,9.31778,0.517936,6.23777,-1.21787,39.6397,7,0,0,0
0,1405001117,820449,-8.98332,29.5332,-22.3948,38.1371,-8.49338,-0.510344,3.76007,9.30248,0.655402,8.52008,-2.75702,39.5696,7,0,0,0
0,1405001118,821455,-9.51487,29.3896,-22.4572,38.1917,-8.46958,-0.513906,3.76248,9.28192,1.01116,6.63699,-2.56724,39.6932,6,0,0,0
0,1405001119,822465,-9.56085,29.4178,-22.5899,38.303,-8.46599,-0.518709,3.76379,9.27945,0.375299,7.56997,-2.86312,39.7627,7,0,0,0
0,1405001120,823480,-8.95266,29.8139,-22.3905,38.3452,-8.46889,-0.517218,3.75149,9.27703,1.68649,7.80335,-2.41848,39.696,7,0,0,0
0,1405001121,824484,-9.45966,29.0652,-22.3967,37.8931,-8.49087,-0.495063,3.72687,9.28598,1.05201,7.58171,-1.47445,39.6929,6,0,0,0
0,1405001122,825490,-9.43665,29.888,-22.2202,38.4198,-8.46414,-0.498496,3.74805,9.27028,2.52182,5.27844,-0.924285,39.6316,7,0,0,0
0,1405001123,826501,-9.22926,29.8644,-22.7277,38.6473,-8.44644,-0.515852,3.78097,9.26846,0.841154,7.79272,-1.14899,39.5244,6,0,0,0
0,1405001124,827508,-9.50076,29.2651,-22.2321,37.9602,-8.45657,-0.49361,3.76772,9.27109,1.37942,7.77455,-2.14475,39.5661,7,0,0,0
0,1405001125,828509,-9.68385,29.6334,-22.2853,38.3217,-8.47208,-0.504307,3.74636,9.27716,-0.192152,6.48967,-1.5394,39.6125,7,0,0,0
0,1405001126,829510,-9.36882,30.1325,-22.4229,38.7108,-8.48125,-0.469495,3.76391,9.29081,2.18705,6.79386,-1.62928,39.572,7,0,0,0
0,1405001127,830513,-9.22296,30.0382,-22.1754,38.4591,-8.46655,-0.509234,3.76283,9.27905,0.274848,6.53834,-1.27658,39.6371,8,0,0,0
0,1405001128,831520,-8.94365,29.6507,-22.056,38.0213,-8.4421,-0.497761,3.8099,9.27535,2.20329,6.38132,-2.38011,39.5963,6,0,0,0
0,1405001129,832532,-9.4712,30.0234,-21.8454,38.3188,-8.47929,-0.511775,3.76208,9.29051,0.51241,7.46454,-1.91597,39.6808,8,0,0,0
0,1405001130,833540,-9.27155,29.4042,-22.2816,38.0399,-8.47195,-0.511102,3.77464,9.28887,1.50237,7.68542,-1.81608,39.7152,6,0,0,0
0,1405001131,834547,-9.38395,29.7144,-22.0084,38.1494,-8.45617,-0.54643,3.78395,9.28028,0.970693,7.6098,-1.1227,39.6922,7,0,0,0
0,1405001132,835550,-9.63969,29.7599,-22.4774,38.5203,-8.4557,-0.53486,3.74825,9.26469,1.25824,7.06899,-1.34772,39.8103,7,0,0,0
0,1405001133,836551,-9.0583,29.4913,-22.5416,38.2088,-8.46655,-0.497704,3.79316,9.29076,0.558298,6.97054,-2.06114,39.7401,7,0,0,0
0,1405001134,837553,-9.34112,29.7175,-21.9655,38.1166,-8.47667,-0.511309,3.76586,9.28962,-0.0613741,6.83431,-1.26623,39.7868,6,0,0,0
0,1405001135,838561,-9.20398,29.3982,-22.0783,37.9001,-8.45831,-0.515397,3.78523,9.28098,1.62433,7.81706,-1.64021,39.7872,6,0,0,0
0,1405001136,839563,-9.0587,29.383,-22.2223,37.9374,-8.47163,-0.489762,3.75784,9.28061,0.480742,7.52574,-1.54907,39.7118,6,0,0,0
0,1405001137,840573,-9.1756,29.9455,-21.8513,38.1891,-8.47516,-0.494265,3.76795,9.28817,1.02145,7.09999,-1.49045,39.7639,6,0,0,0
0,1405001138,841581,-9.5715,29.3543,-21.8952,37.8509,-8.46131,-0.511244,3.78123,9.28186,1.11553,7.89463,-1.73371,39.8009,5,0,0,0
0,1405001139,842583,-9.36375,29.5483,-22.229,38.1433,-8.47355,-0.514231,3.77973,9.29257,1.62093,6.84594,-1.86352,39.8366,7,0,0,0
0,1405001140,843588,-9.39317,29.5137,-22.4234,38.2374,-8.47404,-0.511061,3.77468,9.29079,-0.00179352,7.30677,-2.3347,39.8124,5,0,0,0
0,1405001141,844591,-9.49392,29.3074,-22.0788,37.9016,-8.46622,-0.507743,3.80494,9.29582,1.67978,7.23081,-1.04031,39.7714,7,0,0,0
0,1405001142,845596,-9.25277,29.4105,-22.1096,37.9398,-8.46207,-0.495723,3.78405,9.28285,0.4513,8.17901,-0.843726,39.765,6,0,0,0
0,1405001143,846599,-9.00783,29.38,-22.273,37.9528,-8.48114,-0.504155,3.75072,9.28718,1.44853,6.4997,-1.53533,39.8163,8,0,0,0
0,1405001144,847603,-9.3198,29.6676,-22.2223,38.2212,-8.45958,-0.492486,3.74509,9.2646,0.805926,6.93598,-1.4877,39.7263,8,0,0,0
0,1405001145,848611,-9.30281,29.5443,-22.3959,38.2229,-8.45583,-0.491358,3.77938,9.27503,-0.177448,6.08496,-1.74332,39.7776,6,0,0,0
0,1405001146,849622,-9.44334,29.7908,-22.299,38.3916,-8.45184,-0.496586,3.74444,9.25749,2.54652,7.02082,-2.04289,39.7442,7,0,0,0
0,1405001147,850625,-9.38347,29.4368,-22.4053,38.1651,-8.4615,-0.506437,3.76386,9.2747,1.65058,7.0674,-1.90635,39.847,7,0,0,0
0,1405001148,851629,-9.62057,29.7902,-22.3933,38.4899,-8.459,-0.458745,3.77437,9.27421,2.17997,7.58028,-2.53539,39.7564,7,0,0,0
0,1405001149,852632,-9.46557,28.8561,-22.18,37.6061,-8.4883,-0.498804,3.78667,9.308,1.45179,6.1316,-2.92138,39.7987,7,0,0,0
0,1405001150,853638,-9.311,29.0145,-21.6448,37.377,-8.45937,-0.508112,3.77687,9.27814,2.50535,6.74777,-2.11484,39.7857,5,0,0,0
0,1405001151,854645,-9.53971,29.7132,-22.4647,38.4518,-8.47188,-0.500917,3.7944,9.29629,1.45744,6.70048,-2.35531,39.902,6,0,0,0
0,1405001152,855648,-9.29691,29.4037,-22.2831,38.0467,-8.44731,-0.505665,3.78167,9.26897,2.37221,6.77511,-1.31232,39.7606,7,0,0,0
0,1405001153,856653,-9.13092,29.6699,-22.5409,38.3636,-8.46932,-0.482055,3.77419,9.28473,2.13697,7.42659,-1.34548,39.797,6,0,0,0
0,1405001154,857658,-9.56694,29.6582,-22.417,38.3883,-8.46259,-0.493978,3.7819,9.28236,1.76331,6.39105,-0.970492,39.7395,7,0,0,0
0,1405001155,858670,-9.26784,29.2591,-21.6848,37.5795,-8.47028,-0.495012,3.76376,9.28205,0.505375,7.20237,-1.6843,39.9164,7,0,0,0
0,1405001156,859672,-9.72097,29.6322,-22.5092,38.4608,-8.44513,-0.517982,3.75795,9.25801,1.43533,6.67155,-1.16437,39.8923,7,0,0,0
0,1405001157,860673,-9.46015,29.4135,-22.552,38.2523,-8.4612,-0.501619,3.75431,9.2703,2.35436,7.2733,-1.1759,39.9465,7,0,0,0
0,1405001158,861679,-9.33824,29.3929,-22.8153,38.3626,-8.45512,-0.527113,3.73714,9.25922,0.595489,6.03157,-3.01396,39.7485,6,0,0,0
0,1405001159,862684,-9.32311,29.4321,-22.2567,38.0596,-8.47765,-0.478163,3.77374,9.29195,0.738139,6.88475,-1.78222,39.6965,7,0,0,0
0,1405001160,863686,-9.27258,29.3748,-22.3099,38.034,-8.45157,-0.521452,3.79037,9.27728,1.99918,7.10229,-2.38894,39.6949,6,0,0,0
0,1405001161,864694,-9.41999,29.5079,-22.2292,38.1259,-8.45655,-0.51044,3.72624,9.25519,0.712218,7.28385,-2.35087,39.7517,6,0,0,0
0,1405001162,865708,-9.81544,29.8518,-22.5796,38.6951,-8.47573,-0.493623,3.76682,9.2882,1.05389,6.9413,-2.14729,39.7809,6,0,0,0
0,1405001163,866714,-9.18298,29.4098,-22.2976,38.0322,-8.48036,-0.497744,3.73734,9.28073,1.59226,6.83992,-2.3579,39.727,6,0,0,0
0,1405001164,867716,-9.02244,29.273,-22.541,38.0317,-8.48613,-0.503226,3.75426,9.29312,0.478301,7.21914,-2.25015,39.713,7,0,0,0
0,1405001165,868720,-9.09853,29.5119,-22.0949,37.9726,-8.47772,-0.503848,3.79491,9.30199,-0.173988,7.55597,-1.27044,39.7394,6,0,0,0
0,1405001166,869722,-9.36765,29.9549,-22.3203,38.513,-8.5118,-0.456521,3.71552,9.29862,1.66459,6.29881,-1.3244,39.7835,7,0,0,0
0,1405001167,870727,-9.43338,29.91,-22.7213,38.7279,-8.47808,-0.496951,3.74581,9.28202,1.4007,7.64475,-0.897607,39.6672,6,0,0,0
0,1405001168,871732,-9.05406,29.4208,-22.7976,38.3052,-8.44013,-0.532721,3.76756,9.25819,0.599593,7.16312,-0.821879,39.6886,6,0,0,0
0,1405001169,872733,-9.069,29.4434,-22.36,38.0675,-8.46779,-0.465191,3.74708,9.27149,1.22657,7.58067,-1.85164,39.7183,7,0,0,0
0,1405001170,873739,-9.61479,29.5493,-22.303,38.2495,-8.48174,-0.529199,3.7569,9.29162,1.8742,6.84359,-1.87527,39.6921,5,0,0,0
0,1405001171,874752,-9.30326,29.8189,-22.1111,38.2704,-8.47695,-0.493611,3.75054,9.28272,1.18339,6.48539,-1.53459,39.7344,6,0,0,0
0,1405001172,875760,-9.60392,29.8565,-22.5057,38.6025,-8.47111,-0.502638,3.74159,9.27425,0.39732,6.99413,-1.13216,39.6774,7,0,0,0
0,1405001173,876772,-9.65254,29.9149,-22.1221,38.4377,-8.47634,-0.481199,3.77715,9.29229,0.647434,7.31539,-1.64529,39.7349,7,0,0,0
0,1405001174,877776,-9.58526,29.4303,-22.0387,37.9963,-8.49097,-0.470345,3.75199,9.2949,2.66362,7.34349,-1.52542,39.7596,7,0,0,0
0,1405001175,878777,-9.27357,29.3775,-22.5753,38.1927,-8.4634,-0.510637,3.74085,9.26736,2.57132,7.06313,-1.33343,39.7332,6,0,0,0
0,1405001176,879778,-9.44588,29.8417,-22.365,38.47,-8.46739,-0.496346,3.75673,9.27664,0.246778,7.50578,-2.60749,39.7584,7,0,0,0
0,1405001177,880787,-9.49618,30.0354,-22.2264,38.5528,-8.47456,-0.5046,3.7887,9.29661,1.3481,6.97362,-2.01516,39.7698,7,0,0,0
0,1405001178,881791,-9.65866,29.6437,-22.3139,38.3399,-8.47052,-0.514094,3.71186,9.26239,1.96062,7.73879,-1.00502,39.7703,5,0,0,0
0,1405001179,882805,-9.40341,29.2224,-22.157,37.859,-8.46109,-0.516398,3.74724,9.26815,1.41615,6.13811,-1.89624,39.7879,7,0,0,0
0,1405001180,883807,-9.39927,29.6901,-22.7972,38.5948,-8.47149,-0.508699,3.75729,9.28128,-0.200006,8.67672,-1.83599,39.763,6,0,0,0
0,1405001181,884814,-9.19701,29.3573,-22.4175,38.0655,-8.4761,-0.512669,3.75743,9.28577,1.51777,7.23893,-1.91329,39.8287,7,0,0,0
0,1405001182,885816,-9.60422,29.8207,-22.4558,38.5458,-8.46622,-0.506029,3.7678,9.28058,0.435592,8.37743,-2.08863,39.7756,5,0,0,0
0,1405001183,886825,-10.1009,29.4193,-22.5272,38.4057,-8.46303,-0.487147,3.72946,9.26116,2.45871,6.30409,-1.58348,39.8844,7,0,0,0
0,1405001184,887832,-9.91852,29.7063,-22.1415,38.3547,-8.47064,-0.501569,3.75441,9.27895,1.72298,7.29829,-1.22445,39.7696,5,0,0,0
0,1405001185,888837,-9.54128,29.9309,-22.315,38.5338,-8.47943,-0.523129,3.78012,9.29859,2.083,7.17743,-0.354617,39.9527,6,0,0,0
0,1405001186,889839,-9.64726,29.6918,-22.5271,38.4986,-8.46822,-0.511743,3.7587,9.27904,1.58282,7.03298,-2.08269,39.9326,7,0,0,0
0,1405001187,890840,-9.67435,29.9399,-22.2939,38.5617,-8.45733,-0.501912,3.76481,9.27103,1.22872,6.41735,-1.49432,39.8455,7,0,0,0
0,1405001188,891847,-9.70531,29.5886,-22.2596,38.2775,-8.47062,-0.486813,3.76511,9.28248,0.276635,7.70641,-3.00565,39.899,7,0,0,0
0,1405001189,892849,-9.89207,29.4666,-22.4412,38.3372,-8.47524,-0.507945,3.7625,9.28677,1.60401,7.88406,-0.674375,39.9554,7,0,0,0
0,1405001190,893857,-8.89962,29.3878,-22.7571,38.2195,-8.45787,-0.499181,3.74158,9.26198,1.7608,6.44144,-2.13144,39.9983,6,0,0,0
0,1405001191,894861,-9.29635,29.1317,-22.5239,37.979,-8.48215,-0.482133,3.7551,9.2887,1.04555,7.20458,-2.51043,39.9558,7,0,0,0
0,1405001192,895863,-9.28609,29.2671,-22.2725,37.9323,-8.49003,-0.503122,3.76788,9.30218,0.861932,7.55262,-1.07386,39.9808,6,0,0,0
0,1405001193,896868,-9.68179,29.7657,-22.1512,38.3459,-8.46667,-0.492768,3.75007,9.2731,0.593673,7.89203,-1.99065,40.0399,7,0,0,0
0,1405001194,897874,-9.51229,29.3272,-22.1288,37.9507,-8.46446,-0.520635,3.74941,9.27234,-0.306883,7.01162,-3.31872,39.9704,6,0,0,0
0,1405001195,898882,-9.73247,29.4266,-22.5243,38.3143,-8.47602,-0.485766,3.74829,9.28055,1.07182,7.13443,-0.336166,39.969,7,0,0,0
0,1405001196,899884,-9.30656,29.8745,-22.2207,38.3778,-8.47382,-0.522834,3.75988,9.28524,0.70365,7.18933,-1.91433,40.0549,7,0,0,0
0,1405001197,900888,-9.52678,29.4295,-21.603,37.7299,-8.45857,-0.488937,3.76529,9.27167,1.92741,6.42481,-2.01327,40.0888,6,0,0,0
0,1405001198,901897,-9.50456,30.0618,-22.4158,38.6848,-8.47936,-0.499877,3.79066,9.30154,2.36215,8.00314,-1.79224,39.9503,7,0,0,0
0,1405001199,902899,-9.65454,29.7768,-21.9743,38.2457,-8.46592,-0.509871,3.77535,9.28359,0.961351,8.42914,-2.83035,40.0333,6,0,0,0
0,1405001200,903908,-9.87426,29.4383,-22.3945,38.2835,-8.45619,-0.513313,3.7758,9.27509,1.78208,6.17417,-1.61461,40.1288,7,0,0,0
0,1405001201,904912,-9.86534,29.4646,-22.2621,38.2242,-8.46949,-0.499984,3.77751,9.28718,0.615019,7.06744,-0.707572,40.1412,7,0,0,0
0,1405001202,905913,-9.71613,29.4702,-21.9936,38.0344,-8.45963,-0.494661,3.76059,9.27103,1.24496,7.65011,-1.27457,40.0504,6,0,0,0
0,1405001203,906918,-9.30782,29.4095,-22.266,38.0438,-8.47282,-0.49154,3.76743,9.28568,2.08276,7.25999,-1.18086,40.0953,7,0,0,0
0,1405001204,907919,-9.58389,29.7548,-22.5648,38.5535,-8.46055,-0.485121,3.73179,9.25972,0.902097,6.72325,-2.24709,39.9998,7,0,0,0
0,1405001205,908924,-9.31328,30.0275,-22.3711,38.5857,-8.49243,-0.470594,3.76575,9.30181,2.08778,8.8584,-2.63452,40.1005,5,0,0,0
0,1405001206,909934,-9.12791,29.5658,-22.0051,37.9695,-8.49563,-0.484303,3.76016,9.30318,0.66082,4.94428,0.113223,40.0735,6,0,0,0
0,1405001207,910943,-9.26125,29.9797,-22.9337,38.8653,-8.4854,-0.486737,3.69948,9.26958,1.85456,7.00806,-2.13212,39.9528,6,0,0,0
0,1405001208,911950,-8.95236,29.8826,-22.7164,38.5895,-8.49821,-0.473409,3.75491,9.30285,2.20545,6.73003,-1.57822,39.9635,7,0,0,0
0,1405001209,912958,-9.04545,29.5536,-22.2408,38.0774,-8.52902,-0.429613,3.74145,9.32347,-0.129275,7.15985,-2.2031,39.9526,7,0,0,0
0,1405001210,913965,-8.99178,30.1875,-23.2225,39.1334,-8.53532,-0.450586,3.67507,9.30381,0.215156,6.87375,-1.77246,40.0088,7,0,0,0
0,1405001211,914974,-8.95361,29.8254,-22.6119,38.484,-8.54175,-0.416778,3.60627,9.28118,2.05128,6.53195,-2.60526,39.9981,6,0,0,0
0,1405001212,915979,-8.99521,29.5748,-21.832,37.8446,-8.30532,-1.15146,4.01129,9.29488,1.75977,7.46628,-0.625005,40.0792,6,0,0,0
0,1405001213,916981,-8.89411,29.8649,-22.8544,38.6438,-8.4872,-0.452401,3.72741,9.28067,1.70332,7.1195,-1.42941,40.0824,7,0,0,0
0,1405001214,917984,-8.82634,30.1392,-22.8856,38.859,-8.49965,-0.466703,3.73812,9.29706,0.49222,7.61856,-1.88313,40.146,7,0,0,0
0,1405001215,918990,-8.71954,29.6189,-22.4624,38.1821,-8.50935,-0.460606,3.71135,9.2949,2.2347,7.87816,-1.99232,40.0688,7,0,0,0
0,1405001217,920007,-8.5984,30.0904,-22.5647,38.5815,-8.49121,-0.463073,3.73335,9.28724,-0.978927,8.0473,-2.02443,40.0074,6,0,0,0
0,1405001218,921014,-8.97353,29.8596,-22.4999,38.4496,-8.49226,-0.42409,3.67514,9.2631,0.179558,7.78725,-2.84533,40.0154,6,0,0,0
0,1405001219,922021,-8.69154,29.8931,-22.9677,38.6867,-8.51609,-0.454376,3.66563,9.28262,2.71631,7.37343,-2.06976,39.9686,7,0,0,0
0,1405001220,923022,-8.45981,29.8699,-22.7348,38.4793,-8.56343,-0.482713,3.65997,9.32527,1.5982,6.24065,-1.78905,39.8632,5,0,0,0
0,1405001221,924028,-8.66109,30.1058,-23.0105,38.8698,-8.49893,-0.479687,3.72372,9.29129,0.452715,7.5718,-1.69501,39.9728,7,0,0,0
0,1405001222,925038,-8.78446,29.6135,-22.4459,38.1831,-8.48782,-0.456011,3.67888,9.26203,2.08587,7.52895,-2.60815,39.8981,7,0,0,0
0,1405001223,926048,-9.05729,29.5527,-22.3252,38.1289,-8.50413,-0.451896,3.70622,9.28765,2.03046,6.31453,-0.986507,39.9166,7,0,0,0
0,1405001224,927053,-8.69165,29.9348,-22.6071,38.5061,-8.50875,-0.457036,3.70559,9.29188,1.33584,7.90587,-2.01036,39.9254,6,0,0,0
0,1405001225,928055,-8.92977,30.0307,-22.3022,38.4574,-8.49826,-0.471199,3.71917,9.28842,-0.109219,6.7465,-2.09942,39.9977,6,0,0,0
0,1405001226,929068,-8.72401,29.9706,-23.1875,38.8845,-8.4951,-0.460759,3.72139,9.28589,2.06832,6.42315,-2.37601,40.1148,7,0,0,0
0,1405001227,930073,-9.13173,29.4777,-22.5065,38.195,-8.47802,-0.468779,3.72687,9.27287,0.794198,8.52987,-2.01904,40.0713,6,0,0,0
0,1405001228,931077,-8.94643,29.5746,-22.8911,38.4538,-8.50911,-0.443418,3.7233,9.29863,2.32136,6.85228,-2.04392,40.1569,7,0,0,0
