0,1412489750,utime,,bx(uT),by(uT),bz(uT),,B(uT),ax,,,,ay,,az,,,,,A,,,,,gx,,,gy,,,,gz,,,T(C),rate,,track,tilt,roll
0,1412489750,mins,,-1000,-1000,-1000,,,,,0,,,,-2000,-2000,-2000,,0,,,-2000,,-2000,-2000,-2000,,0,,0,,-180,-180
0,1412489750,maxs,,,1000,,1000,,1000,,,,1000,,,2000,,2000,,2000,2000,,2000,,,2000,,2000,,2000,,37000,360,180,180
0,1412489750,attr,,,,,F,,,,,F,,,,,F,,,,,,F,,,,,,F,,,,,F,,,,F,,,,,F,,,,,F,,,,,,F,,,,,F,,,,,F,,,,,I,F,F,F
0,1412489751,4294967295,3.62385,5.90214,1.00917,6.999,-1.43191,-0.19796,0.560887,1.55053,0.289855,0.278261,-0.568116,2.63778,0,0,0,0
0,1405941375,48222,22.5295,35.9904,5.74567,42.8474,-8.59341,-1.21228,3.39795,9.32,2.26386,4.57275,-0.620195,27.7651,8104,0,0,0
0,1405941376,49226,22.4465,35.9905,5.92613,42.8285,-8.62946,-1.23873,3.37614,9.34881,2.04098,5.53067,-1.29978,27.6546,11,0,0,0
0,1405941377,50228,22.5176,36.0254,5.81819,42.8804,-8.6376,-1.21319,3.38403,9.35583,2.61896,5.34394,-1.09765,27.7184,11,0,0,0
0,1405941378,51229,22.5818,35.7556,6.09874,42.7269,-8.60784,-1.22708,3.44907,9.35396,2.36507,6.6848,-2.50067,27.7827,11,0,0,0
0,1405941379,52231,22.7458,35.918,6.0162,42.938,-8.69302,-1.14976,3.34084,9.38359,1.76844,5.15356,-3.37314,27.841,12,0,0,0
0,1405941380,53232,22.4398,35.6815,5.56758,42.5172,-8.63442,-1.17523,3.40383,9.35524,2.25482,5.6044,-0.713146,27.8563,12,0,0,0
0,1405941381,54237,22.4108,35.6878,5.85636,42.546,-8.62486,-1.27341,3.3585,9.34288,1.86952,5.7112,-0.681822,27.9084,12,0,0,0
0,1405941382,55238,22.8522,35.9525,5.80571,42.9943,-8.59451,-1.19642,3.38796,9.31533,1.68996,4.46461,-3.10476,28.0333,11,0,0,0
0,1405941383,56243,22.3636,35.8832,5.56002,42.6456,-8.62771,-1.23452,3.36791,9.34367,1.61875,4.9421,-0.0995295,27.9998,11,0,0,0
0,1405941384,57250,22.4773,35.4855,6.19904,42.4603,-8.63256,-1.27138,3.41074,9.3686,1.64822,5.1152,-1.29755,28.0454,12,0,0,0
0,1405941385,58253,22.6982,36.2491,5.8583,43.1686,-8.64341,-1.21984,3.39173,9.36485,1.84129,5.39923,-2.36046,28.0116,11,0,0,0
0,1405941386,59256,22.5627,35.645,5.84262,42.5884,-8.62057,-1.23734,3.3881,9.34476,2.58912,4.81714,-0.609504,28.0574,12,0,0,0
0,1405941387,60263,22.5075,35.8463,6.21667,42.7807,-8.62552,-1.21875,3.41275,9.35584,2.40908,5.62072,-1.6012,28.183,12,0,0,0
0,1405941388,61265,22.6403,36.2461,5.9146,43.1433,-8.63689,-1.21356,3.37389,9.35156,0.833048,5.64325,-0.406453,28.195,10,0,0,0
0,1405941389,62270,22.7817,36.0601,5.75555,43.0402,-8.62909,-1.21161,3.39264,9.35089,2.27183,4.96563,-1.7194,28.115,12,0,0,0
0,1405941390,63273,22.6035,36.291,5.70411,43.1334,-8.63145,-1.21584,3.38297,9.35012,2.39144,5.17115,-0.168811,28.1984,11,0,0,0
0,1405941391,64501,22.5825,36.2211,5.73202,43.0673,-8.63138,-1.21776,3.38003,9.34924,2.45663,5.27161,-0.975459,28.1941,8,0,0,0
0,1405941392,65503,22.4368,35.9998,6.18267,42.8675,-8.62279,-1.23935,3.39606,9.34996,0.750997,5.67258,-1.54275,28.264,7,0,0,0
0,1405941393,66507,22.5423,35.8034,6.34098,42.7814,-8.61619,-1.23195,3.39583,9.34281,1.57252,4.17836,-1.0391,28.2369,7,0,0,0
0,1405941394,67514,22.7502,35.5646,5.98123,42.6402,-8.62255,-1.23394,3.37379,9.34095,3.5884,4.98937,-1.72522,28.4194,7,0,0,0
0,1405941395,68522,23.0993,35.7784,5.90686,42.995,-8.62692,-1.23389,3.37925,9.34695,0.952903,5.86129,-0.755344,28.357,7,0,0,0
0,1405941396,69530,22.7535,35.5422,6.03816,42.6313,-8.606,-1.24246,3.39004,9.33271,0.21291,5.66289,-0.772689,28.4153,8,0,0,0
0,1405941397,70533,22.5026,36.1667,6.46546,43.0836,-8.6194,-1.22059,3.38123,9.33898,0.935151,6.67803,-1.03339,28.2661,7,0,0,0
0,1405941398,71534,22.9627,36.0303,6.52513,43.2209,-8.62685,-1.2155,3.40017,9.35206,1.69632,5.61225,-2.60753,28.4477,7,0,0,0
0,1405941399,72539,22.6604,35.9898,6.09194,42.9636,-8.61705,-1.23829,3.39557,9.34435,1.71003,5.96658,-0.752656,28.3535,7,0,0,0
0,1405941400,73542,22.5713,36.2118,6.2373,43.1238,-8.62375,-1.22701,3.3871,9.34596,3.06214,6.35224,-1.48793,28.427,8,0,0,0
0,1405941401,74543,22.8881,35.9319,6.01562,43.025,-8.62473,-1.23046,3.37429,9.34269,0.336987,5.20522,-2.34228,28.3988,7,0,0,0
0,1405941402,75546,22.3969,35.5256,5.95851,42.4169,-8.62376,-1.22664,3.40084,9.35091,1.32662,4.8514,-1.84509,28.5395,7,0,0,0
0,1405941403,76551,22.5133,35.6696,5.82982,42.5811,-8.60779,-1.22852,3.38734,9.33152,1.63935,5.23536,-1.21519,28.4661,8,0,0,0
0,1405941404,77553,22.5253,35.7906,6.18955,42.7396,-8.62439,-1.22853,3.38368,9.34552,1.45824,5.00896,-0.643678,28.4634,7,0,0,0
0,1405941405,78562,22.1594,35.7098,5.9129,42.4404,-8.62536,-1.21743,3.37669,9.34244,1.35763,5.80782,-0.13771,28.5383,9,0,0,0
0,1405941406,79681,22.2276,35.6756,5.99775,42.4592,-8.61312,-1.23888,3.3616,9.3285,1.61831,5.82536,0.0591549,28.5356,4,0,0,0
0,1405941407,80690,22.485,36.1432,6.06901,42.997,-8.61088,-1.23041,3.36673,9.32717,2.33304,5.22208,0.146556,28.5224,8,0,0,0
0,1405941408,81698,22.6847,35.6879,5.89842,42.6967,-8.65251,-1.23258,3.36733,9.36611,2.49224,4.69894,-1.67013,28.5728,8,0,0,0
0,1405941409,82702,22.6621,35.4639,5.97542,42.5084,-8.6147,-1.24971,3.40524,9.34722,2.03373,5.13895,-1.97647,28.5931,8,0,0,0
0,1405941410,83707,22.7086,35.2407,6.20668,42.3805,-8.61653,-1.21309,3.38947,9.33835,2.05555,5.4504,-0.958682,28.6662,8,0,0,0
0,1405941411,84709,22.6267,35.7256,6.16833,42.7356,-8.60952,-1.21594,3.42897,9.34667,2.56387,4.83877,-2.68654,28.688,7,0,0,0
0,1405941412,85715,22.6863,35.6065,6.14374,42.6642,-8.62527,-1.24587,3.39053,9.35111,2.48912,5.98023,-2.03359,28.6108,9,0,0,0
0,1405941413,86716,22.6878,35.5836,6.01502,42.6276,-8.58694,-1.25761,3.38764,9.31629,1.90691,6.01007,-0.619023,28.7272,6,0,0,0
0,1405941414,87723,22.4206,35.2537,6.10707,42.2233,-8.62603,-1.22485,3.36451,9.33962,1.2006,6.035,-1.78061,28.8482,8,0,0,0
0,1405941415,88730,22.3898,35.2516,6.20818,42.2199,-8.6357,-1.24038,3.38909,9.35947,2.77156,5.80532,-0.633304,28.7669,8,0,0,0
0,1405941416,89738,22.6643,35.4613,5.92691,42.5006,-8.61528,-1.23714,3.38452,9.33855,1.24902,6.32679,-0.97651,28.7472,7,0,0,0
0,1405941417,90740,22.4681,35.932,6.20503,42.8303,-8.62431,-1.24773,3.39343,9.35152,2.12055,6.55121,-2.05479,28.8538,8,0,0,0
0,1405941418,91743,22.7643,35.5487,5.89574,42.6226,-8.63636,-1.2248,3.39814,9.36132,2.39108,5.86449,-2.13551,28.8264,8,0,0,0
0,1405941419,92745,22.8302,35.949,6.21946,43.0375,-8.61991,-1.24848,3.39293,9.34738,0.742627,5.94591,-2.57864,28.8513,8,0,0,0
0,1405941420,93752,22.6489,35.7098,6.1206,42.7274,-8.61165,-1.23899,3.39354,9.33872,2.76796,5.28476,-2.39789,28.8624,7,0,0,0
0,1405941421,94758,22.8187,36.0043,6.13664,43.0658,-8.62053,-1.24418,3.3849,9.34446,2.87777,6.76642,-1.99831,28.878,7,0,0,0
0,1405941422,95759,22.6222,35.6997,6.54667,42.7679,-8.61953,-1.23294,3.38997,9.3439,2.63884,5.4161,-0.958857,29.0049,8,0,0,0
0,1405941423,96763,22.6299,35.9069,5.84897,42.8442,-8.63034,-1.23353,3.38818,9.3533,0.951261,5.00747,-1.63723,28.857,7,0,0,0
0,1405941424,97764,22.4167,35.9788,6.23719,42.8472,-8.62152,-1.21428,3.37104,9.33643,0.587186,5.32148,-0.429868,29.0074,8,0,0,0
0,1405941425,98765,22.5233,36.0705,6.11723,42.9628,-8.62999,-1.21498,3.40584,9.35696,1.71191,5.19974,-2.10624,29.1135,8,0,0,0
0,1405941426,99775,22.7894,35.3526,5.55003,42.426,-8.62094,-1.23451,3.41133,9.35317,0.946767,5.82432,-1.57889,29.0798,7,0,0,0
0,1405941427,100782,22.7649,35.4964,6.1981,42.6222,-8.63039,-1.22781,3.37647,9.34835,3.51659,5.56052,-1.30249,29.1057,8,0,0,0
0,1405941428,101789,22.7335,35.2522,6.08184,42.3853,-8.61708,-1.24169,3.39029,9.34291,1.48771,5.901,-1.58343,29.1216,7,0,0,0
0,1405941429,102797,22.8388,35.7007,6.39719,42.8611,-8.62925,-1.2448,3.39816,9.3574,1.40718,4.66856,-1.25056,29.1718,8,0,0,0
0,1405941430,103800,22.5963,35.83,5.82563,42.7588,-8.62161,-1.23292,3.38387,9.34359,1.58231,5.64207,-0.577277,29.2473,7,0,0,0
0,1405941431,104804,22.8923,35.9663,6.09694,43.0675,-8.61786,-1.22991,3.35694,9.33002,0.269478,5.71242,-1.55988,29.1772,8,0,0,0
0,1405941432,105810,23.1618,35.8467,5.61894,43.0468,-8.65125,-1.22625,3.39064,9.37253,2.13031,5.57916,-1.3819,29.2176,8,0,0,0
0,1405941433,106811,22.7129,36.0927,6.23816,43.0984,-8.62728,-1.22495,3.35863,9.33868,2.35455,5.05741,-0.0966394,29.264,8,0,0,0
0,1405941434,107813,22.2852,35.8605,6.06365,42.6541,-8.62849,-1.21741,3.4092,9.35712,1.59197,4.86551,-0.803134,29.2554,8,0,0,0
0,1405941436,109970,22.6957,35.556,6.17625,42.6318,-8.62156,-1.23843,3.35075,9.33234,2.79074,6.02961,-0.886504,29.2986,2,0,0,0
0,1405941437,110973,22.5814,35.7856,6.09378,42.7512,-8.63461,-1.21126,3.3632,9.34531,0.789886,5.47633,-1.89155,29.4008,7,0,0,0
0,1405941438,111976,22.8939,35.7243,5.9594,42.847,-8.61138,-1.22123,3.36581,9.32609,1.46292,5.41506,-1.37334,29.3669,7,0,0,0
0,1405941439,112978,22.7194,35.6194,5.91399,42.6601,-8.6176,-1.26862,3.3757,9.34172,0.928333,6.06725,-1.45496,29.4133,8,0,0,0
0,1405941440,113980,22.5497,36.0315,6.03754,42.9326,-8.6201,-1.2218,3.40782,9.34945,2.03524,5.2281,-1.95486,29.3593,7,0,0,0
0,1405941441,114983,21.8508,35.2629,6.02036,41.9187,-8.62979,-1.2019,3.41732,9.35927,2.17327,6.05975,-1.11424,29.5185,8,0,0,0
0,1405941442,115990,22.7868,35.7765,5.80692,42.8125,-8.64744,-1.23011,3.40535,9.37486,2.0599,4.27785,-1.02576,29.4291,7,0,0,0
0,1405941443,116991,22.9301,35.8547,5.99148,42.9796,-8.60692,-1.23755,3.39916,9.33621,1.63928,5.2834,-0.637202,29.4459,8,0,0,0
0,1405941444,117993,22.5876,35.4721,6.15191,42.5007,-8.62186,-1.25676,3.38963,9.34909,1.08615,6.35068,-1.74183,29.4831,7,0,0,0
0,1405941445,118997,22.702,35.9468,6.31483,42.9817,-8.62417,-1.23354,3.38319,9.34579,0.0944977,6.19987,-0.753513,29.553,7,0,0,0
0,1405941447,120002,22.5725,35.5137,6.34185,42.5554,-8.59997,-1.23953,3.42895,9.34096,0.58251,5.24395,-1.364,29.637,8,0,0,0
0,1405941448,121003,22.5244,35.5859,5.9684,42.5362,-8.62297,-1.23528,3.38402,9.34522,2.01755,4.71148,-1.76626,29.538,6,0,0,0
0,1405941449,122011,22.6805,35.8137,5.89303,42.799,-8.60921,-1.2311,3.37711,9.32947,0.964976,5.37524,-3.42176,29.6376,7,0,0,0
0,1405941450,123013,22.7389,35.5871,6.327,42.7029,-8.62963,-1.21509,3.39566,9.35293,2.93344,5.26978,-1.76286,29.5951,7,0,0,0
0,1405941451,124018,22.7878,36.1872,5.90809,43.1706,-8.60509,-1.23705,3.38372,9.32885,2.17583,5.53458,-0.753817,29.6267,7,0,0,0
0,1405941452,125021,22.4506,35.8169,5.54026,42.6331,-8.62816,-1.23229,3.40158,9.35599,2.55774,5.02513,-1.4224,29.6058,8,0,0,0
0,1405941453,126028,22.5301,35.7874,6.36579,42.7652,-8.64543,-1.24131,3.37647,9.36402,2.24021,5.81191,-1.70333,29.6919,9,0,0,0
0,1405941454,127037,22.798,35.4693,6.12982,42.6075,-8.61053,-1.24001,3.39305,9.33765,1.9821,5.17082,-0.832603,29.6679,8,0,0,0
0,1405941455,128040,22.5454,35.7162,6.43498,42.7242,-8.61083,-1.23561,3.39402,9.33769,2.64972,6.02146,-1.77156,29.7638,8,0,0,0
0,1405941456,129047,22.6687,35.6393,5.59923,42.6073,-8.60282,-1.24647,3.37215,9.32382,2.56604,5.1676,0.316121,29.6395,8,0,0,0
0,1405941457,130193,22.5756,35.571,5.70578,42.5148,-8.61413,-1.24988,3.36441,9.33192,1.98764,5.29184,0.83155,29.6511,3,0,0,0
0,1405941458,131198,22.5753,35.7121,6.02374,42.6765,-8.63087,-1.21939,3.40985,9.3598,0.704283,6.04364,-1.85178,29.9048,8,0,0,0
0,1405941459,132201,22.7956,35.6284,6.09678,42.734,-8.62756,-1.21574,3.3601,9.33826,2.39883,6.04172,-0.976943,29.8895,8,0,0,0
0,1405941460,133203,23.0411,35.7689,5.84901,42.9478,-8.62455,-1.23196,3.36747,9.34025,2.05404,5.86442,-1.52624,29.8248,8,0,0,0
0,1405941461,134208,22.3138,35.8747,6.59159,42.7592,-8.60425,-1.28634,3.3669,9.32865,2.59594,5.91866,-1.44993,29.872,7,0,0,0
0,1405941462,135216,22.5784,35.9962,5.98091,42.9101,-8.61349,-1.23476,3.36397,9.32915,1.13365,5.49201,-1.92905,29.8511,8,0,0,0
0,1405941463,136222,22.1954,35.7535,6.22425,42.5404,-8.64516,-1.22094,3.39683,9.36846,1.88245,5.26918,-1.92138,29.8393,7,0,0,0
0,1405941464,137226,22.62,35.7942,6.07283,42.7758,-8.62515,-1.24632,3.40531,9.35642,1.32038,5.66897,-1.4194,29.865,7,0,0,0
0,1405941465,138232,22.5468,35.8949,6.44546,42.8759,-8.61369,-1.21345,3.40412,9.3411,1.89305,6.4828,-1.30373,29.8665,7,0,0,0
0,1405941466,139245,22.669,35.8747,6.14926,42.88,-8.62522,-1.23807,3.36566,9.34103,2.24972,6.07575,-1.48661,29.825,8,0,0,0
0,1405941467,140248,22.3604,36.1237,5.95099,42.899,-8.63411,-1.24594,3.33897,9.34071,1.86351,5.29007,-0.772028,29.9104,8,0,0,0
0,1405941468,141252,22.6148,35.76,5.83407,42.7112,-8.61579,-1.20584,3.38898,9.33655,1.809,5.48343,-1.15901,29.9626,7,0,0,0
0,1405941469,142256,22.7085,35.9527,6.45586,43.011,-8.61179,-1.23975,3.34761,9.32236,1.85753,5.57401,-1.6108,29.9669,7,0,0,0
0,1405941470,143260,22.8941,36.0071,6.60026,43.1766,-8.63013,-1.21371,3.38367,9.34887,1.54882,5.46537,-0.956014,29.9846,7,0,0,0
0,1405941471,144266,22.7149,35.8388,6.18733,42.8797,-8.63753,-1.24016,3.39077,9.36175,1.88227,5.67009,-2.78566,30.0681,8,0,0,0
0,1405941472,145272,22.5202,35.9041,6.0442,42.8112,-8.64242,-1.22779,3.41352,9.37288,1.23405,5.96927,-1.36065,29.98,7,0,0,0
0,1405941473,146276,22.4114,35.9238,6.33557,42.8127,-8.6227,-1.24734,3.38972,9.34864,0.509634,5.18194,-0.569152,30.1159,8,0,0,0
0,1405941474,147283,22.5149,35.5322,5.92468,42.48,-8.6136,-1.22145,3.37107,9.33007,1.57657,6.41389,-1.2656,30.0388,8,0,0,0
0,1405941475,148294,22.5942,35.5457,5.95919,42.5383,-8.61714,-1.30636,3.38374,9.34941,0.894992,5.90946,-0.669909,30.1934,7,0,0,0
0,1405941476,149295,22.5778,35.9035,6.00964,42.8361,-8.6339,-1.2181,3.3669,9.34688,2.04207,4.84321,0.163396,30.0206,8,0,0,0
0,1405941477,150301,22.8101,35.9078,6.25633,42.9978,-8.63882,-1.24695,3.36426,9.35427,2.06868,6.68366,-2.05555,30.0531,7,0,0,0
0,1405941478,151307,22.4577,35.3863,5.97966,42.3355,-8.59533,-1.23919,3.44725,9.34339,1.70809,5.23556,-2.21012,30.1612,9,0,0,0
0,1405941479,152315,22.4892,35.8538,6.12858,42.7647,-8.62756,-1.2485,3.38938,9.35316,1.55523,4.65537,-1.1546,30.2458,7,0,0,0
0,1405941480,153322,22.3674,35.8632,5.87933,42.6735,-8.63062,-1.25091,3.36453,9.34732,1.97456,6.61368,-2.70831,30.2659,7,0,0,0
0,1405941481,154330,22.7855,35.5688,5.72333,42.6272,-8.63761,-1.25921,3.3777,9.35963,1.38978,6.28614,-0.494281,30.3075,8,0,0,0
0,1405941482,155336,22.6114,35.3768,6.10164,42.4267,-8.6179,-1.2113,3.40455,9.34486,2.45925,5.617,-2.95369,30.2551,8,0,0,0
0,1405941483,156339,22.5487,35.5692,6.03794,42.5449,-8.62551,-1.23692,3.40569,9.35565,2.45356,5.67637,-1.532,30.3049,8,0,0,0
0,1405941484,157341,22.4267,35.4717,6.17397,42.4183,-8.64021,-1.20329,3.36837,9.35131,1.194,5.27767,-2.6285,30.2719,8,0,0,0
0,1405941485,158346,22.5435,35.4634,6.35691,42.5003,-8.6205,-1.26211,3.37218,9.34224,2.07744,6.85983,-2.12202,30.2539,7,0,0,0
0,1405941486,159352,22.6988,35.6794,6.01098,42.7128,-8.61683,-1.24451,3.39501,9.34476,0.999792,6.50497,-0.208929,30.3214,8,0,0,0
0,1405941487,160357,22.5113,35.5403,5.93772,42.4868,-8.61799,-1.23219,3.38716,9.34135,1.84361,5.85964,-1.6471,30.4307,7,0,0,0
0,1405941488,161365,22.3869,35.6437,5.86435,42.4975,-8.6093,-1.23984,3.38207,9.33251,1.63255,5.53596,-1.79875,30.5517,7,0,0,0
0,1405941489,162373,22.6509,35.6253,6.05831,42.6489,-8.62439,-1.23949,3.39158,9.34983,2.27749,5.69446,-0.98666,30.3599,8,0,0,0
0,1405941490,163382,22.463,35.4388,5.9692,42.3807,-8.64065,-1.23306,3.35321,9.35015,1.22248,5.8742,-0.672527,30.4322,7,0,0,0
0,1405941491,164384,22.59,35.5075,5.88186,42.4934,-8.62748,-1.22749,3.37726,9.34591,1.62303,6.92984,0.0679334,30.4696,7,0,0,0
0,1405941492,165388,22.2801,35.5309,6.0616,42.3744,-8.62966,-1.2242,3.3783,9.34787,0.747404,4.94517,-1.74049,30.6037,7,0,0,0
0,1405941493,166390,22.6882,35.7358,5.94609,42.7453,-8.614,-1.23667,3.36594,9.33059,2.66592,4.89426,-1.19908,30.5155,8,0,0,0
0,1405941494,167395,22.2555,35.9498,6.28223,42.7453,-8.63034,-1.22365,3.39133,9.35314,1.38113,6.28466,-1.75469,30.7231,8,0,0,0
0,1405941495,168406,22.4578,35.5994,5.72966,42.4794,-8.61826,-1.24156,3.36658,9.3354,2.00957,5.73184,-1.18784,30.7292,8,0,0,0
0,1405941496,169414,22.501,35.841,6.1796,42.7675,-8.60739,-1.23154,3.37427,9.32682,1.62286,4.83595,-1.46687,30.6765,8,0,0,0
0,1405941497,170416,22.4597,35.5172,5.77982,42.4183,-8.60104,-1.24374,3.40898,9.3352,2.6038,5.76897,-1.43551,30.6979,7,0,0,0
0,1405941498,171421,22.3788,35.739,6.26276,42.6299,-8.63494,-1.22285,3.37384,9.35095,2.4608,7.11596,-2.45675,30.7527,8,0,0,0
0,1405941499,172422,22.565,35.946,5.63658,42.8143,-8.61906,-1.22431,3.40064,9.3462,1.10217,6.27047,-1.74304,30.7112,8,0,0,0
0,1405941500,173425,22.5857,35.7514,6.05964,42.72,-8.63476,-1.24009,3.37616,9.3539,0.463823,5.27742,0.301576,30.6532,7,0,0,0
0,1405941501,174431,22.6909,35.5461,5.94929,42.5887,-8.63822,-1.23273,3.38266,9.35846,1.53791,4.96204,-0.906626,30.6857,7,0,0,0
0,1405941502,175433,22.684,35.4343,6.11006,42.5146,-8.61506,-1.22873,3.38227,9.33642,1.96881,5.07063,-0.77208,30.6662,6,0,0,0
0,1405941503,176435,22.4164,35.6705,6.12961,42.5729,-8.62803,-1.22716,3.37299,9.34483,2.46413,4.62076,-2.3605,30.7484,7,0,0,0
0,1405941504,177440,22.4028,35.7469,5.80752,42.5847,-8.636,-1.23127,3.39083,9.35918,3.0996,6.06625,-1.52279,30.7397,7,0,0,0
0,1405941505,178443,22.5069,35.8714,5.67596,42.7263,-8.6093,-1.26248,3.38669,9.33722,2.14421,5.89714,-1.71919,30.7975,7,0,0,0
0,1405941506,179445,22.5212,35.4832,6.03913,42.4586,-8.62457,-1.24045,3.38341,9.34716,2.2596,4.9006,-1.97367,30.7952,7,0,0,0
0,1405941507,180451,22.4814,35.8035,5.73132,42.6632,-8.62348,-1.23447,3.37899,9.34376,1.91105,6.37865,-1.15995,30.9021,8,0,0,0
0,1405941508,181460,22.7342,35.5898,5.65416,42.6081,-8.63742,-1.23226,3.38248,9.3576,1.42652,7.18965,-2.50913,30.8958,8,0,0,0
0,1405941509,182468,22.3715,35.4192,5.96719,42.3156,-8.61288,-1.21604,3.37624,9.33056,1.70701,5.82124,-1.13423,30.9366,7,0,0,0
0,1405941510,183475,22.6409,35.9085,5.64833,42.8244,-8.63404,-1.23386,3.36239,9.34744,1.93151,6.91289,-1.17195,31.0515,8,0,0,0
0,1405941511,184480,22.5451,35.9879,6.22409,42.9203,-8.62096,-1.23232,3.36941,9.33769,2.59951,5.38582,-2.50251,31.0588,7,0,0,0
0,1405941512,185482,22.7263,35.6479,5.79554,42.6714,-8.64836,-1.24381,3.38791,9.37118,1.49721,5.76729,-2.30588,30.9782,8,0,0,0
0,1405941513,186483,22.2907,35.6682,5.82225,42.4617,-8.64139,-1.24051,3.37883,9.36103,0.855903,5.93389,-1.83127,31.1232,8,0,0,0
0,1405941514,187484,22.5863,35.8896,6.18252,42.8535,-8.62674,-1.23803,3.39236,9.35209,1.2726,5.97177,-1.80338,31.0423,8,0,0,0
0,1405941515,188486,22.3511,35.4845,6.12023,42.3813,-8.62548,-1.2512,3.37382,9.34596,2.60088,5.98158,-0.871465,31.0255,8,0,0,0
0,1405941516,189495,22.5042,35.5054,5.83058,42.439,-8.61955,-1.24607,3.36807,9.33773,0.922088,4.76382,-0.604817,31.0972,7,0,0,0
0,1405941517,190496,22.4482,35.3602,6.05724,42.3197,-8.60014,-1.22122,3.38159,9.32143,1.26138,5.68862,-1.44417,31.0588,8,0,0,0
0,1405941518,191502,22.4749,35.5349,6.42756,42.5343,-8.6115,-1.1952,3.35445,9.31873,0.940145,6.29823,-1.97928,31.0801,7,0,0,0
0,1405941519,192507,22.8913,35.2315,5.68561,42.3981,-8.65152,-1.22054,3.36418,9.36249,2.15828,5.48093,-1.05031,31.1138,8,0,0,0
0,1405941520,193509,22.6912,35.8586,6.20452,42.8862,-8.61082,-1.24149,3.38083,9.33367,2.61813,6.12677,-0.695772,31.1801,8,0,0,0
0,1405941521,194515,22.2151,35.7567,5.99498,42.5205,-8.61935,-1.24118,3.40404,9.34994,1.92703,5.04981,-1.04892,31.1836,7,0,0,0
0,1405941522,195522,22.488,35.3854,6.06537,42.363,-8.63028,-1.23001,3.3432,9.33657,2.16173,5.01973,-2.0019,31.1714,8,0,0,0
0,1405941523,196523,22.5724,35.7698,6.4713,42.7887,-8.65173,-1.23966,3.37577,9.36936,1.22468,5.25783,-0.821754,31.2019,8,0,0,0
0,1405941524,197525,22.4533,35.8968,5.75158,42.7295,-8.65557,-1.23466,3.39794,9.38026,1.85371,4.33535,-1.38286,31.2074,8,0,0,0
0,1405941525,198527,22.4034,35.671,6.41891,42.6091,-8.62411,-1.23444,3.3459,9.33242,1.32254,6.45127,-0.764416,31.2455,8,0,0,0
0,1405941526,199532,22.3066,35.4703,5.56735,42.2697,-8.65536,-1.24595,3.3816,9.37566,1.45159,6.00782,-1.88321,31.2339,8,0,0,0
0,1405941527,200536,22.4788,35.3694,5.77803,42.3046,-8.63077,-1.23646,3.3798,9.35105,0.461606,5.41152,-0.904966,31.2246,7,0,0,0
0,1405941528,201537,22.2905,35.5778,6.4072,42.47,-8.64626,-1.25074,3.37357,9.36499,1.94919,5.98086,-1.82116,31.279,8,0,0,0
0,1405941529,202543,22.2155,35.6061,6.39729,42.4528,-8.62361,-1.22746,3.38561,9.34535,1.31665,5.57384,-1.24103,31.3763,7,0,0,0
0,1405941530,203552,22.614,35.5816,5.81721,42.5592,-8.63461,-1.23131,3.39141,9.35812,0.851159,5.82237,-0.551649,31.3394,9,0,0,0
0,1405941531,204556,22.326,35.5194,5.92058,42.369,-8.6248,-1.23307,3.37166,9.34215,2.04769,6.24258,-0.756062,31.3566,8,0,0,0
0,1405941532,205561,22.4978,35.4706,5.70042,42.3888,-8.63935,-1.23747,3.36343,9.3532,0.55434,5.78097,-0.925414,31.2617,7,0,0,0
0,1405941533,206563,22.8063,35.2633,5.85904,42.4023,-8.61267,-1.23761,3.35899,9.32698,1.2332,6.46555,-1.64839,31.3618,8,0,0,0
0,1405941534,207567,22.3928,35.168,6.149,42.1431,-8.60096,-1.22071,3.38872,9.3247,1.19699,5.04687,-2.65935,31.3585,8,0,0,0
0,1405941535,208572,22.673,35.1527,6.19905,42.2872,-8.63939,-1.26316,3.36333,9.35664,0.855762,6.57168,-1.29882,31.3399,7,0,0,0
0,1405941536,209576,22.6594,35.5501,5.83005,42.5587,-8.61871,-1.24862,3.37883,9.34118,1.63541,6.5982,-0.874496,31.3648,8,0,0,0
0,1405941537,210583,22.3409,35.6477,6.06138,42.5044,-8.63128,-1.22936,3.40996,9.36153,1.15622,6.23897,-0.782914,31.4586,7,0,0,0
0,1405941538,211584,22.2584,35.3927,6.22732,42.2713,-8.59718,-1.19808,3.4133,9.32724,1.02666,5.91214,-1.36211,31.5196,7,0,0,0
0,1405941539,212588,22.484,35.6284,5.86774,42.5364,-8.63381,-1.24493,3.36266,9.3488,2.34926,6.03564,-1.01027,31.4251,7,0,0,0
0,1405941540,213596,22.407,35.1466,6.14407,42.132,-8.63404,-1.22366,3.38428,9.354,2.66879,5.9926,-1.15169,31.4843,8,0,0,0
0,1405941541,214601,22.6181,35.3259,6.00791,42.3744,-8.63098,-1.22933,3.37922,9.35009,0.587493,5.54155,-0.430564,31.3676,7,0,0,0
0,1405941542,215603,22.5028,35.4828,5.75481,42.409,-8.6294,-1.2215,3.34508,9.33532,0.991739,5.04443,-1.16821,31.5777,7,0,0,0
0,1405941543,216604,22.6447,35.5649,5.80926,42.5604,-8.63635,-1.25079,3.32968,9.34012,2.80808,5.66062,-1.20983,31.4014,7,0,0,0
0,1405941544,217608,22.2384,35.5257,6.06656,42.3489,-8.61188,-1.27208,3.31679,9.31578,1.78504,5.2234,-2.19061,31.5214,7,0,0,0
0,1405941545,218614,22.6151,35.5042,5.84647,42.4991,-8.6432,-1.22814,3.38199,9.36221,1.65402,5.97443,-1.88762,31.4426,7,0,0,0
0,1405941546,219616,22.301,35.2008,5.9645,42.0952,-8.64637,-1.29141,3.34884,9.36174,1.03437,7.342,-2.11127,31.4799,7,0,0,0
0,1405941547,220624,22.292,35.2408,5.97048,42.1248,-8.57807,-1.23047,3.43969,9.32356,1.74786,6.81911,-1.99201,31.5502,6,0,0,0
0,1405941548,221630,22.4641,35.5597,5.96398,42.4818,-8.60221,-1.21955,3.37693,9.32143,2.34389,6.66235,-1.39291,31.5777,8,0,0,0
0,1405941549,222638,22.4656,35.3832,6.28804,42.3818,-8.6903,-1.26832,3.31351,9.38665,0.100056,6.51087,-1.70059,31.6275,6,0,0,0
0,1405941550,223646,22.705,35.1852,6.17091,42.3273,-8.61223,-1.23853,3.37719,9.33327,2.55543,5.84162,-1.40462,31.5869,8,0,0,0
0,1405941551,224652,22.5757,35.4898,6.40396,42.5464,-8.64245,-1.20607,3.33872,9.3431,1.624,5.57503,-0.397403,31.6688,8,0,0,0
0,1405941552,225664,22.4479,35.6183,5.9108,42.5148,-8.57819,-1.24038,3.45241,9.32968,2.67894,5.47262,-1.30453,31.8053,7,0,0,0
0,1405941553,226665,22.2973,35.5468,5.9245,42.3774,-8.63777,-1.2564,3.34393,9.34727,1.91238,6.08401,-1.93071,31.719,7,0,0,0
0,1405941554,227670,22.3824,35.4442,5.97947,42.344,-8.61072,-1.23301,3.40637,9.34175,2.27118,5.88674,-1.30589,31.765,7,0,0,0
0,1405941555,228672,22.5534,35.501,6.03834,42.4905,-8.64453,-1.21801,3.36917,9.35749,1.34958,6.46093,-2.61125,31.7846,8,0,0,0
0,1405941556,229673,22.6983,35.8155,6.33345,42.8728,-8.54628,-1.26507,3.45562,9.30487,2.64862,6.69669,-2.11849,31.7942,8,0,0,0
0,1405941557,230675,22.5466,35.2857,6.23033,42.3349,-8.56893,-1.21116,3.47289,9.32494,2.80295,5.28142,-2.66159,31.8317,8,0,0,0
0,1405941558,231679,22.4152,35.4537,6.21277,42.4029,-8.6087,-1.22672,3.36825,9.32522,1.89249,5.54303,-1.75925,31.854,7,0,0,0
0,1405941559,232680,22.6657,35.6917,6.04454,42.7103,-8.61134,-1.23635,3.37065,9.3298,1.59885,5.02782,-3.38435,31.8792,8,0,0,0
0,1405941560,233685,22.5474,35.4122,6.00687,42.4086,-8.63253,-1.23163,3.3457,9.33976,2.20852,6.16392,-2.11715,31.9826,8,0,0,0
0,1405941561,234692,22.1846,35.8453,6.01905,42.5825,-8.62342,-1.25768,3.35628,9.33861,2.28245,6.13429,-1.80364,31.8478,7,0,0,0
0,1405941562,235694,22.1933,35.7436,6.06447,42.508,-8.66547,-1.21279,3.37201,9.37719,1.35606,6.47905,-0.955559,32.0519,8,0,0,0
0,1405941563,236697,22.5384,35.6705,5.93049,42.609,-8.64219,-1.25502,3.33188,9.34687,1.57339,6.34788,-1.67632,31.9393,6,0,0,0
0,1405941564,237705,22.6788,35.6446,5.94272,42.6636,-8.61478,-1.25192,3.41097,9.34968,2.45491,5.95334,-2.48746,31.9841,7,0,0,0
0,1405941565,238711,22.3982,35.302,5.75439,42.2022,-8.61914,-1.24552,3.36736,9.33703,1.28057,6.2175,-0.541219,31.9219,7,0,0,0
0,1405941566,239719,22.4997,35.4229,6.02662,42.3951,-8.65746,-1.24509,3.37815,9.37623,2.63416,5.26622,-0.92858,31.9968,9,0,0,0
0,1405941567,240724,22.4231,35.373,5.88973,42.2934,-8.59319,-1.26132,3.42439,9.33597,1.89284,5.96399,-0.953354,31.9979,8,0,0,0
0,1405941568,241730,22.2551,35.4485,5.73001,42.2459,-8.61902,-1.18058,3.43584,9.35341,-0.524709,6.04893,-1.69288,32.0482,7,0,0,0
0,1405941569,242736,22.3439,35.5642,6.35072,42.4781,-8.56933,-1.42081,3.34814,9.30925,1.47521,6.23332,-2.52152,32.1296,7,0,0,0
0,1405941570,243743,22.5993,35.5516,5.91265,42.5395,-8.60415,-1.1814,3.3851,9.32127,1.57637,5.49739,-0.593686,32.1561,8,0,0,0
0,1405941571,244746,22.8694,35.7481,6.20783,42.8891,-8.67242,-1.30493,3.27432,9.36135,1.46432,5.145,-1.63568,32.0997,8,0,0,0
0,1405941572,245748,23.1196,35.2861,5.87868,42.5932,-8.64617,-1.06389,3.38515,9.34598,0.330577,5.73139,-1.71823,32.1554,8,0,0,0
0,1405941573,246750,23.1493,35.5339,6.10023,42.8458,-8.74977,-0.926084,3.19139,9.35954,0.82473,6.3057,-3.83283,32.1347,8,0,0,0
0,1405941574,247755,22.777,35.7471,6.26399,42.8472,-8.64783,-1.26848,3.24177,9.32218,1.0945,5.75722,0.378557,32.1289,8,0,0,0
0,1405941575,248759,22.9341,35.2248,5.97496,42.4554,-8.66771,-1.11731,3.36587,9.36518,2.66061,6.03249,-2.40366,32.2163,7,0,0,0
0,1405941576,249775,23.2356,35.2819,6.23969,42.7041,-8.6452,-1.04799,3.33916,9.32672,1.88023,5.77131,-0.57989,32.2338,8,0,0,0
0,1405941577,250780,23.0055,35.6066,6.2343,42.848,-8.67025,-1.11346,3.38644,9.37449,1.6241,6.44104,-0.470555,32.2981,8,0,0,0
0,1405941578,251782,22.988,35.5193,6.0861,42.7447,-8.62057,-1.1581,3.41816,9.34555,2.26029,6.58509,-2.12012,32.2905,8,0,0,0
0,1405941579,252785,23.2119,35.5197,6.08391,42.8656,-8.60906,-1.14828,3.37598,9.31836,1.8875,6.08021,-2.16279,32.2716,8,0,0,0
0,1405941580,253786,22.972,35.7828,6.08588,42.9553,-8.6509,-1.11477,3.41257,9.36624,0.985495,5.89871,-1.54618,32.2322,7,0,0,0
0,1405941581,254787,22.7753,35.4983,6.22959,42.6339,-8.59863,-1.10754,3.42231,9.32069,1.71108,5.64809,-2.1005,32.3757,7,0,0,0
0,1405941582,255788,23.102,35.8826,6.02594,43.0996,-8.61217,-1.35036,3.42289,9.36531,2.19885,6.32992,-1.95424,32.3251,7,0,0,0
0,1405941583,256794,23.1672,35.6391,5.91266,42.9165,-8.60075,-1.1659,3.39521,9.31985,2.75675,6.69908,-0.950445,32.3123,8,0,0,0
0,1405941584,257800,22.8869,35.6949,6.49767,42.897,-8.6639,-1.02385,3.27056,9.31708,1.3997,6.0486,-1.18538,32.3231,8,0,0,0
0,1405941585,258804,23.1171,35.41,6.09715,42.7252,-8.65567,-1.11485,3.37985,9.35879,1.39092,6.82607,-0.736853,32.3123,8,0,0,0
0,1405941586,259808,23.1379,35.7703,6.15849,43.0442,-8.63523,-1.15055,3.41917,9.35851,1.31317,5.9716,-1.75559,32.3763,7,0,0,0
0,1405941587,260814,22.8457,35.3602,6.23301,42.5573,-8.6204,-1.30275,3.45135,9.37658,1.28231,7.04509,-1.44928,32.3834,8,0,0,0
0,1405941588,261816,22.9624,35.5446,5.78369,42.7099,-8.733,-1.20174,3.23674,9.39074,1.01173,7.02219,-1.91314,32.4777,7,0,0,0
0,1405941589,262820,22.9572,36.0236,6.42231,43.197,-8.6844,-1.15208,3.38423,9.39144,2.73798,6.56559,-0.891036,32.4341,7,0,0,0
0,1405941590,263825,22.7089,35.8499,6.57958,42.9441,-8.61368,-1.20585,3.41735,9.34494,2.85584,4.76445,-2.44045,32.4379,7,0,0,0
0,1405941591,264828,23.2049,35.5214,6.09537,42.8648,-8.60706,-1.06341,3.34355,9.29472,3.19394,5.50647,0.0802437,32.5009,8,0,0,0
0,1405941592,265831,22.7873,35.3618,5.86266,42.4746,-8.64016,-1.10512,3.3591,9.3358,-0.156257,6.49236,-1.11445,32.4739,7,0,0,0
0,1405941593,266832,23.2758,35.5463,5.91801,42.8991,-8.62776,-1.11082,3.37626,9.3312,2.07926,7.32686,-1.89891,32.4701,7,0,0,0
0,1405941594,267835,22.8515,35.4831,5.62258,42.5776,-8.6362,-1.11809,3.37794,9.34048,1.5031,5.97316,-1.48294,32.4599,7,0,0,0
0,1405941595,268836,22.797,35.3436,6.29183,42.526,-8.62884,-1.15147,3.36386,9.33264,-0.112426,6.44313,-0.954255,32.5637,8,0,0,0
0,1405941596,269838,22.7898,35.4205,6.18498,42.5704,-8.66801,-1.14604,3.2997,9.34537,1.82907,6.86351,-1.77276,32.5379,8,0,0,0
0,1405941597,270840,22.5988,35.9821,5.85582,42.8918,-8.61431,-1.12398,3.36017,9.31453,1.62773,7.02421,-1.30401,32.5607,8,0,0,0
0,1405941598,271847,22.6856,35.845,6.02259,42.8459,-8.62546,-1.11416,3.37258,9.32814,2.51351,5.72041,-1.27112,32.6129,8,0,0,0
0,1405941599,272851,22.814,35.4234,5.82398,42.5349,-8.66892,-1.0995,3.36611,9.36428,0.475259,6.16471,-1.33662,32.5824,7,0,0,0
0,1405941600,273857,22.5677,35.6667,6.24137,42.6658,-8.64872,-1.10261,3.38099,9.35132,2.18445,6.99213,-2.78709,32.6097,8,0,0,0
0,1405941601,274861,22.7851,35.6132,6.19599,42.7299,-8.63312,-1.11364,3.40015,9.34516,1.34117,6.33575,-1.82492,32.5878,7,0,0,0
0,1405941602,275867,23.1165,35.4727,6.11265,42.779,-8.63538,-1.11633,3.42307,9.35593,1.79588,6.50618,-1.90775,32.6468,8,0,0,0
0,1405941603,276868,22.8204,35.4424,6.0639,42.5876,-8.65473,-1.12812,3.35591,9.35089,1.59831,5.6914,-2.06806,32.6377,8,0,0,0
0,1405941604,277871,22.8183,35.3172,6.18042,42.4991,-8.6408,-1.11023,3.36443,9.33892,1.69701,6.51334,-1.9994,32.7006,8,0,0,0
0,1405941605,278878,23.0261,35.8123,5.94874,42.9897,-8.49077,-1.11533,3.55564,9.27252,0.438854,5.86806,-0.307195,32.6447,8,0,0,0
0,1405941606,279879,23.1185,35.3615,6.02887,42.6761,-8.63056,-1.13113,3.39318,9.34236,2.16836,6.085,-1.65995,32.7256,7,0,0,0
0,1405941607,280880,22.7514,35.8191,5.87825,42.839,-8.62878,-1.13597,3.37677,9.33536,0.720746,6.22618,-1.16811,32.712,7,0,0,0
0,1405941608,281881,22.8046,35.5326,6.50624,42.7194,-8.6415,-1.14603,3.37001,9.34591,0.972786,6.15129,-0.71384,32.703,7,0,0,0
0,1405941609,282891,22.6132,35.8144,6.07347,42.7891,-8.61633,-1.0983,3.40357,9.32908,1.28672,6.17459,-1.92663,32.7619,8,0,0,0
0,1405941610,283892,22.6509,35.7808,6.18762,42.7973,-8.62132,-1.1,3.38463,9.327,0.259104,6.69968,-0.536654,32.8519,8,0,0,0
0,1405941611,284895,23.0745,35.7007,5.53082,42.8668,-8.62786,-1.11129,3.41165,9.34421,1.04739,6.88946,-0.440157,32.7609,8,0,0,0
0,1405941612,285903,23.1306,35.3914,6.23095,42.7364,-8.65978,-1.13973,3.35349,9.3561,1.27412,5.90381,-3.34433,32.754,8,0,0,0
0,1405941613,286910,22.8963,35.5782,5.75548,42.6987,-8.63459,-1.10887,3.42533,9.35514,2.57386,6.27956,-1.66628,32.7637,6,0,0,0
0,1405941614,287914,22.7278,35.3915,6.14509,42.5073,-8.60873,-1.11386,3.37403,9.31316,2.78971,6.82502,-2.33569,32.7906,9,0,0,0
0,1405941615,288915,22.5873,34.6873,4.67605,41.6565,-8.62719,-1.11447,3.37898,9.3321,1.03723,6.06116,-0.152355,32.7471,7,0,0,0
0,1405941616,289916,22.9324,35.7154,5.40432,42.7866,-8.63718,-1.11695,3.41705,9.35546,0.861836,5.16167,-1.0054,32.732,8,0,0,0
0,1405941617,290919,22.9395,35.8167,5.84629,42.9329,-8.64986,-1.16102,3.35261,9.34923,1.7488,5.88737,-2.04602,32.7967,7,0,0,0
0,1405941618,291922,19.0747,35.1476,3.35579,40.1305,-8.6334,-1.17976,3.38379,9.34759,2.59671,6.48241,-1.37549,32.9103,7,0,0,0
0,1405941619,292926,18.9932,35.3689,3.52881,40.3008,-8.62637,-1.12273,3.35985,9.32541,1.48469,6.11945,-0.912811,32.9308,8,0,0,0
0,1405941620,293929,19.0652,35.2149,4.14917,40.259,-8.63422,-1.1074,3.37143,9.33502,1.83396,6.14738,-1.88808,32.9015,7,0,0,0
0,1405941621,294942,19.1698,35.0453,3.01679,40.0594,-8.65044,-1.12872,3.36553,9.35045,1.92271,5.63183,-2.69758,32.9035,8,0,0,0
0,1405941622,295944,19.0405,35.5615,3.47935,40.4879,-8.64912,-1.13253,3.35006,9.34413,1.67803,6.33888,-2.0706,32.8649,8,0,0,0
0,1405941623,296952,18.9348,35.1799,3.45602,40.101,-8.64711,-1.13655,3.37662,9.35231,0.936195,5.88433,-1.66765,32.91,8,0,0,0
0,1405941624,297957,19.8208,35.5476,3.22435,40.8276,-8.60824,-1.14341,3.38239,9.31932,1.01369,7.18223,-0.100841,32.9096,8,0,0,0
0,1405941625,298962,19.5031,35.7594,3.32781,40.8678,-8.63828,-1.15524,3.36793,9.34331,1.77008,6.30026,-1.53981,32.9694,7,0,0,0
0,1405941626,299964,19.9117,34.1482,-1.51755,39.5585,-8.64327,-1.17296,3.389,9.35774,1.19828,4.9324,-1.22447,32.971,7,0,0,0
0,1405941627,300971,19.8575,33.9598,-2.38562,39.4117,-8.6486,-1.12694,3.36203,9.34728,1.0823,6.30993,-1.01916,32.973,8,0,0,0
0,1405941628,301972,19.7665,33.9479,-2.25267,39.3478,-8.62751,-1.15532,3.38752,9.34045,1.18905,5.51871,-1.80188,33.0194,7,0,0,0
0,1405941629,302973,19.982,33.902,-2.04315,39.4056,-8.60976,-1.11453,3.34985,9.30546,1.67138,6.60774,-1.70514,32.9794,7,0,0,0
0,1405941630,303981,20.0565,34.2201,-1.95258,39.7126,-8.63119,-1.12041,3.38585,9.33899,1.83974,6.772,-1.86152,33.0414,6,0,0,0
0,1405941631,304983,19.928,34.0276,-1.96299,39.4824,-8.62497,-1.12084,3.36251,9.32485,0.581628,6.00464,-1.67499,32.9668,7,0,0,0
0,1405941632,305994,20.1174,34.1774,-2.04205,39.7111,-8.61398,-1.13752,3.37707,9.32198,1.57762,6.37892,-1.74165,33.0054,8,0,0,0
0,1405941634,307001,20.0092,33.8938,-2.00413,39.4103,-8.63954,-1.11602,3.37449,9.34207,1.06625,6.1248,-1.48905,33.1359,6,0,0,0
0,1405941635,308002,19.8026,33.9951,-1.9379,39.3899,-8.64356,-1.16727,3.37877,9.3536,1.34536,6.1212,-0.761034,33.1114,7,0,0,0
0,1405941636,309004,19.9958,33.9634,-1.89061,39.4578,-8.63106,-1.12316,3.3862,9.33933,-0.156474,6.30915,-1.38092,33.1164,6,0,0,0
0,1405941637,310006,20.1404,34.2078,-1.71468,39.7335,-8.64049,-1.14103,3.38134,9.34845,1.85118,6.86044,-1.16925,33.2154,8,0,0,0
0,1405941638,311011,20.3082,34.1263,-2.55631,39.7941,-8.6558,-1.10473,3.36744,9.35323,1.95919,6.31624,-0.926226,33.206,7,0,0,0
0,1405941639,312020,19.6276,34.0901,-2.14113,39.395,-8.65607,-1.14148,3.35654,9.35398,1.74773,6.69977,-0.218567,33.2606,7,0,0,0
0,1405941640,313022,20.2251,33.896,-2.02448,39.5233,-8.60361,-1.11816,3.4004,9.31853,0.378085,6.80051,-1.48926,33.0326,7,0,0,0
0,1405941641,314036,19.6398,33.9418,-1.88101,39.2595,-8.59959,-1.12394,3.39614,9.31396,1.72,4.69795,-2.63048,33.1912,7,0,0,0
0,1405941642,315039,19.9526,34.1532,-1.93245,39.6016,-8.6258,-1.1221,3.41237,9.34386,1.99601,6.372,-0.745729,33.2342,8,0,0,0
0,1405941643,316045,19.9645,33.7586,-2.00796,39.2716,-8.61044,-1.15332,3.38292,9.32276,-0.144367,5.90357,-1.02661,33.3254,7,0,0,0
0,1405941644,317048,19.9166,33.8447,-1.84004,39.3131,-8.64802,-1.15899,3.37273,9.35451,2.90368,5.99682,-1.71608,33.2595,8,0,0,0
0,1405941645,318056,20.0387,34.0212,-2.55952,39.5669,-8.60649,-1.12629,3.40418,9.32356,1.07359,6.74308,-1.34427,33.3475,6,0,0,0
0,1405941646,319058,19.885,33.8552,-2.21186,39.3253,-8.64338,-1.09756,3.39165,9.34965,0.530492,5.99566,-1.24022,33.2787,9,0,0,0
0,1405941647,320065,19.8929,34.2975,-2.10709,39.705,-8.62738,-1.15678,3.39846,9.34449,2.87178,5.58862,-1.48843,33.2974,7,0,0,0
0,1405941648,321066,20.0973,34.1208,-2.04499,39.6524,-8.62361,-1.12933,3.37319,9.32848,2.28597,6.26335,-2.705,33.3615,7,0,0,0
0,1405941649,322074,20.2566,33.8805,-1.94441,39.5221,-8.61121,-1.11098,3.36258,9.31097,1.87465,6.21175,-1.7943,33.4157,7,0,0,0
0,1405941650,323083,20.1338,34.0023,-2.36601,39.5869,-8.61896,-1.15294,3.37492,9.32769,1.93191,6.02988,-2.06537,33.3556,7,0,0,0
0,1405941651,324091,20.0826,33.9084,-1.54108,39.4394,-8.64774,-1.15348,3.37257,9.3535,0.375651,6.11841,-0.620527,33.3103,8,0,0,0
0,1405941652,325096,20.033,34.0419,-1.84352,39.542,-8.62484,-1.12707,3.3926,9.33638,1.77059,5.1216,-2.08355,33.3559,8,0,0,0
0,1405941653,326107,20.0806,34.1109,-2.05707,39.636,-8.6262,-1.13607,3.36017,9.32699,1.84013,5.49689,-1.50835,33.4496,7,0,0,0
0,1405941654,327115,20.3759,34.0589,-2.16697,39.7478,-8.63259,-1.11057,3.40859,9.34737,2.48843,5.6815,-1.54838,33.4076,7,0,0,0
0,1405941655,328116,19.9931,33.971,-2.19836,39.4789,-8.61668,-1.12793,3.38212,9.32513,0.730385,6.58341,-2.61612,33.4405,8,0,0,0
0,1405941656,329127,20.1344,33.9455,-2.00325,39.5184,-8.64065,-1.15353,3.38525,9.35154,0.437532,6.25975,-0.487634,33.5371,8,0,0,0
0,1405941657,330130,19.5262,33.6907,-2.19211,39.0018,-8.64674,-1.13878,3.36631,9.34853,1.40206,5.2584,-2.63017,33.5372,7,0,0,0
0,1405941658,331131,19.7804,33.7611,-2.20001,39.1907,-8.62662,-1.16299,3.33997,9.32344,0.346045,6.34448,-1.89542,33.4943,6,0,0,0
0,1405941659,332134,19.9531,34.0988,-2.38533,39.5796,-8.62941,-1.1492,3.37255,9.33603,1.38529,6.17295,-1.56992,33.5416,8,0,0,0
0,1405941660,333136,19.7881,34.3231,-1.92028,39.6652,-8.61344,-1.13465,3.39791,9.3287,1.97311,6.22429,-0.541476,33.5736,7,0,0,0
0,1405941661,334138,20.1767,33.9144,-2.09367,39.5179,-8.63472,-1.13795,3.38793,9.34513,1.3208,7.54373,-1.32628,33.5806,7,0,0,0
0,1405941662,335140,20.0656,33.5962,-2.23853,39.1962,-8.63575,-1.11126,3.38103,9.34037,1.2706,7.528,-1.51914,33.5789,7,0,0,0
0,1405941663,336142,20.2735,33.7942,-2.36384,39.4797,-8.62335,-1.1711,3.3548,9.32676,1.67856,5.97012,-1.60664,33.6023,8,0,0,0
0,1405941664,337150,19.8793,34.2038,-2.17088,39.6207,-8.64647,-1.14551,3.36447,9.34844,1.32521,6.28196,-1.90769,33.6886,7,0,0,0
0,1405941665,338153,19.802,33.9869,-1.91704,39.3815,-8.62512,-1.11502,3.3667,9.32581,1.38469,5.99321,-2.10084,33.6031,7,0,0,0
0,1405941666,339160,20.0328,33.8137,-2.19016,39.3634,-8.62148,-1.11588,3.35057,9.31673,3.64138,6.21466,-0.94709,33.6035,8,0,0,0
0,1405941667,340165,20.2429,34.2326,-2.01939,39.8212,-8.63142,-1.13228,3.3659,9.33343,2.0817,6.29684,-2.50248,33.6742,8,0,0,0
0,1405941668,341170,19.9237,34.1435,-2.44535,39.607,-8.61296,-1.08685,3.39178,9.32032,2.33967,6.10618,-1.66802,33.6421,7,0,0,0
0,1405941669,342178,20.1593,34.0063,-2.60514,39.6183,-8.62484,-1.16856,3.37947,9.33672,0.901837,6.50398,-2.45831,33.7056,8,0,0,0
0,1405941670,343183,20.7706,33.9328,-2.32995,39.8532,-8.61475,-1.12777,3.3715,9.31948,0.157482,5.84123,-2.26886,33.7942,6,0,0,0
0,1405941671,344191,20.3593,33.7143,-2.32207,39.4531,-8.61853,-1.12406,3.36618,9.32061,1.61179,6.57539,-0.43936,33.7622,7,0,0,0
0,1405941672,345199,20.4993,33.8476,-2.31258,39.6387,-8.61916,-1.09182,3.36898,9.31837,2.30319,6.95863,-1.66412,33.7084,8,0,0,0
0,1405941673,346205,20.1199,33.9345,-2.23587,39.514,-8.62969,-1.122,3.37566,9.33411,2.51633,7.43655,-0.528348,33.8053,7,0,0,0
0,1405941674,347207,20.0615,33.9032,-2.05349,39.4475,-8.63233,-1.15223,3.36698,9.33709,3.09793,5.50632,-0.81068,33.8146,7,0,0,0
0,1405941675,348212,20.1166,34.1047,-2.2425,39.659,-8.62472,-1.13017,3.37143,9.32897,2.19198,7.11277,-0.483371,33.8477,7,0,0,0
0,1405941676,349214,20.119,33.8139,-2.2146,39.4088,-8.61989,-1.11334,3.378,9.32486,0.600445,5.98163,-2.37459,33.8359,8,0,0,0
0,1405941677,350216,20.234,34.0241,-2.30977,39.6533,-8.62839,-1.14163,3.38235,9.33771,1.50793,6.60995,0.0385494,33.8506,8,0,0,0
0,1405941678,351220,20.4193,34.0067,-2.2733,39.7312,-8.61872,-1.14045,3.37726,9.32678,0.71536,6.20187,-2.53373,33.8243,7,0,0,0
0,1405941679,352224,20.137,33.9313,-2.54736,39.5388,-8.65348,-1.12745,3.383,9.35941,1.95993,6.57483,-2.11121,33.8575,8,0,0,0
0,1405941680,353229,19.8912,33.8075,-2.12368,39.2825,-8.62734,-1.12306,3.39504,9.33909,1.82264,6.85567,-1.96865,33.8534,7,0,0,0
0,1405941681,354231,20.0996,33.9221,-2.12207,39.4868,-8.63982,-1.12078,3.36786,9.34051,3.38422,5.78449,-1.35304,34.0002,8,0,0,0
0,1405941682,355234,20.3837,34.0837,-2.23038,39.7765,-8.63419,-1.14323,3.37398,9.34024,3.36317,6.08056,-1.68685,33.9542,7,0,0,0
0,1405941683,356240,20.4485,33.7986,-2.30332,39.5701,-8.62651,-1.14776,3.38291,9.33692,2.20671,5.69446,-1.02875,33.9693,6,0,0,0
0,1405941684,357243,20.12,33.9236,-2.2015,39.5028,-8.62275,-1.14645,3.40134,9.33999,2.23384,6.30875,-1.95943,34.0076,8,0,0,0
0,1405941685,358247,19.8318,34.1752,-2.18487,39.5729,-8.64372,-1.13704,3.37234,9.3477,2.93158,5.28967,-1.30572,33.975,7,0,0,0
0,1405941686,359254,20.1631,33.7211,-2.21079,39.3516,-8.6335,-1.10905,3.38285,9.33868,1.32802,6.84282,-1.10014,34.0084,9,0,0,0
0,1405941687,360258,20.3962,33.8429,-2.12958,39.5712,-8.63287,-1.1653,3.3838,9.34529,1.29296,6.12856,-2.27708,34.0573,7,0,0,0
0,1405941688,361265,19.8568,34.292,-2.39977,39.6988,-8.6305,-0.858276,3.46462,9.33947,0.760953,5.47078,-2.19158,33.9763,8,0,0,0
0,1405941689,362273,19.977,34.034,-2.28028,39.5296,-8.60849,-1.21965,3.46144,9.35816,1.84982,6.70608,-1.10973,34.0053,7,0,0,0
0,1405941690,363281,20.0012,34.2979,-2.34675,39.7731,-8.66221,-1.13301,3.38535,9.369,1.68699,6.17789,-1.84883,33.9823,8,0,0,0
0,1405941691,364282,20.1589,33.9768,-2.2108,39.5689,-8.62507,-1.14579,3.37554,9.33268,2.8334,5.6338,-3.24979,34.0953,7,0,0,0
0,1405941692,365290,20.2099,33.7997,-1.96696,39.4301,-8.63018,-1.12697,3.37968,9.3366,2.13177,6.62593,-0.914062,34.07,8,0,0,0
0,1405941693,366295,19.9481,33.9578,-2.18381,39.444,-8.64762,-1.11694,3.38393,9.35307,2.46559,7.30501,-2.50273,34.0383,8,0,0,0
0,1405941694,367301,19.9394,33.931,-1.98468,39.4059,-8.63729,-1.15265,3.38578,9.34852,0.972151,5.35219,-2.1944,34.032,7,0,0,0
0,1405941695,368306,19.9855,34.0289,-2.16131,39.5229,-8.62317,-1.11962,3.36175,9.32276,0.366656,7.55541,-1.15025,34.0921,8,0,0,0
0,1405941696,369309,19.8945,33.7794,-2.27021,39.2682,-8.63552,-1.11526,3.38087,9.34058,2.30098,5.99445,-1.67456,34.122,7,0,0,0
0,1405941697,370310,19.9881,34.2116,-1.91939,39.6691,-8.65949,-1.1658,3.37016,9.36503,2.56615,5.70762,-2.31216,34.1403,8,0,0,0
0,1405941698,371318,19.915,33.9155,-1.86211,39.3743,-8.6142,-1.12045,3.41391,9.33353,2.46804,5.07319,-1.1467,34.156,6,0,0,0
0,1405941699,372319,20.1205,33.9791,-1.98427,39.5392,-8.64206,-1.15232,3.38076,9.35107,2.5421,6.62672,-1.7691,34.0879,8,0,0,0
0,1405941700,373320,20.2485,33.8163,-2.01187,39.4663,-8.65512,-1.13091,3.3841,9.36174,1.25523,6.40259,-2.81866,34.1813,6,0,0,0
0,1405941701,374324,20.1032,33.9152,-2.05268,39.479,-8.61492,-1.12384,3.36123,9.31546,2.44048,5.17097,-1.58783,34.1767,8,0,0,0
0,1405941702,375331,20.4434,34.0352,-2.35693,39.7729,-8.65069,-1.12177,3.35255,9.34518,1.68453,6.91758,-1.8115,34.154,7,0,0,0
0,1405941703,376335,19.7758,34.0189,-2.21423,39.4116,-8.64485,-1.12349,3.35313,9.34019,2.58084,6.49332,-2.05889,34.1843,7,0,0,0
0,1405941704,377343,19.9932,33.9462,-2.41999,39.4706,-8.64952,-1.12215,3.39966,9.36115,1.62708,5.61177,-0.990893,34.1706,7,0,0,0
0,1405941705,378349,20.0618,34.1966,-2.38205,39.7184,-8.64534,-1.11842,3.3848,9.35145,1.36681,6.75149,-1.36931,34.1742,7,0,0,0
0,1405941706,379351,19.9904,33.7934,-1.91535,39.3101,-8.63172,-1.13905,3.36168,9.333,1.90699,6.52887,-2.36922,34.2098,7,0,0,0
0,1405941707,380355,20.0539,34.0549,-2.20761,39.5824,-8.59186,-1.11236,3.35611,9.2909,2.33872,7.10349,-1.67194,34.1994,6,0,0,0
0,1405941708,381365,20.4372,33.9454,-2.57435,39.7064,-8.63089,-1.14879,3.34348,9.32689,0.0533771,4.85666,-1.60219,34.2314,7,0,0,0
0,1405941709,382366,20.058,33.8146,-2.05045,39.3694,-8.6039,-1.15845,3.3872,9.31892,1.47052,7.19672,-2.15196,34.2186,8,0,0,0
0,1405941710,383376,20.0263,34.2585,-1.55964,39.7131,-8.65282,-1.13063,3.37407,9.35596,1.12603,6.46797,-1.14606,34.2411,8,0,0,0
0,1405941711,384380,20.1174,33.4901,-1.95035,39.1165,-8.64821,-1.16852,3.32238,9.33783,1.19615,6.59071,-2.11608,34.3011,8,0,0,0
0,1405941712,385386,20.2405,33.9558,-1.97783,39.5802,-8.62935,-1.14481,3.36966,9.33439,1.96321,6.41254,-1.4696,34.2375,8,0,0,0
0,1405941713,386390,20.0739,33.8598,-2.16774,39.4227,-8.66453,-1.13436,3.34381,9.35639,1.29669,6.3732,-2.36544,34.2385,7,0,0,0
0,1405941714,387396,19.7588,33.9402,-2.27838,39.3387,-8.65681,-1.14392,3.35142,9.35313,1.96649,7.50837,-1.74228,34.3007,8,0,0,0
0,1405941715,388402,20.0904,34.0226,-2.38748,39.5836,-8.63875,-1.12255,3.34675,9.33215,1.66558,6.42022,-2.99547,34.2092,7,0,0,0
0,1405941716,389405,20.1999,33.5679,-2.01572,39.2289,-8.65649,-1.13725,3.37424,9.36022,2.27325,6.79725,-1.07442,34.2968,7,0,0,0
0,1405941717,390410,19.6511,33.2722,-1.59066,38.6747,-8.64729,-1.15018,3.33565,9.33944,1.5146,6.33669,-1.51762,34.2866,8,0,0,0
0,1405941718,391414,20.2164,34.224,-2.24567,39.8124,-8.61565,-1.11886,3.37059,9.31891,1.78819,5.43593,-1.97032,34.3646,8,0,0,0
0,1405941719,392420,20.1436,33.9306,-2.31566,39.5274,-8.6398,-1.12747,3.3221,9.32489,2.62059,6.65535,-1.43312,34.3676,8,0,0,0
0,1405941720,393428,20.2962,34.028,-2.19116,39.6818,-8.64598,-1.14049,3.34956,9.34201,1.41545,5.96331,-1.70976,34.3752,8,0,0,0
0,1405941721,394434,20.2505,33.958,-2.07499,39.5921,-8.65009,-1.14983,3.39931,9.36491,2.6617,7.15537,-2.39539,34.2855,7,0,0,0
0,1405941722,395439,20.3912,33.9329,-2.20979,39.65,-8.62156,-1.13813,3.42674,9.34714,0.24112,6.00013,-1.077,34.3668,7,0,0,0
0,1405941723,396447,19.9119,33.8099,-1.73903,39.2761,-8.63569,-1.12928,3.40532,9.35129,2.83946,6.68171,-1.54692,34.3991,5,0,0,0
0,1405941724,397460,20.2473,34.0994,-2.42561,39.7316,-8.67737,-1.15854,3.39482,9.38956,1.56435,8.11807,-1.08322,34.4272,7,0,0,0
0,1405941725,398465,20.1946,33.7915,-1.90526,39.4122,-8.66476,-1.15141,3.34071,9.35757,1.61199,6.81125,-1.5665,34.4759,7,0,0,0
0,1405941726,399471,20.4191,34.0361,-2.14281,39.7491,-8.66156,-1.12893,3.36401,9.36022,1.42827,6.16152,-1.74664,34.4422,6,0,0,0
0,1405941727,400475,19.7531,33.6356,-2.13467,39.0653,-8.6484,-1.14573,3.33516,9.33975,2.37406,6.65697,-1.57401,34.4177,6,0,0,0
0,1405941728,401481,20.1681,34.1636,-2.37953,39.7437,-8.63487,-1.1398,3.35106,9.33219,2.66479,7.41747,-1.29252,34.4425,6,0,0,0
0,1405941729,402488,19.9648,33.4533,-1.77307,38.9982,-8.6418,-1.15594,3.37374,9.34874,1.14965,6.07467,-0.863906,34.5299,8,0,0,0
0,1405941730,403496,19.7703,34.2314,-2.60499,39.6161,-8.63707,-1.12312,3.34703,9.33075,2.83818,6.03074,-1.69783,34.6134,8,0,0,0
0,1405941731,404509,20.2658,33.6226,-2.07632,39.3127,-8.6658,-1.13273,3.35954,9.36299,0.730355,6.793,-1.6855,34.5138,7,0,0,0
0,1405941732,405513,20.1112,33.8677,-1.94014,39.4366,-8.61965,-1.1515,3.34823,9.31852,1.74448,5.92476,-1.96603,34.4834,8,0,0,0
0,1405941733,406522,20.1614,34.0991,-1.81883,39.6552,-8.6198,-1.15186,3.36786,9.32578,2.33564,6.5017,-2.28705,34.4711,7,0,0,0
0,1405941734,407524,19.833,34.1506,-1.9649,39.5408,-8.63879,-1.11398,3.35893,9.33553,2.23638,6.35856,-0.788908,34.5406,8,0,0,0
0,1405941735,408530,20.0528,33.5017,-2.44816,39.1212,-8.63598,-1.13633,3.38551,9.34522,1.3783,6.57031,-1.1683,34.5723,8,0,0,0
0,1405941736,409538,20.0692,34.2506,-2.02772,39.7491,-8.6321,-1.13926,3.3683,9.33576,1.36072,6.32925,-1.81326,34.6167,7,0,0,0
0,1405941737,410540,20.0123,33.9967,-2.35853,39.52,-8.63148,-1.10271,3.37038,9.33155,1.83303,6.92183,-1.50935,34.693,7,0,0,0
0,1405941738,411546,20.2979,33.7742,-2.05005,39.4576,-8.62453,-1.16031,3.37466,9.33366,1.06053,6.50695,-1.75919,34.6742,8,0,0,0
0,1405941739,412550,20.1564,33.9675,-2.30197,39.5648,-8.64058,-1.1511,3.40978,9.36009,1.06618,6.4627,-0.885068,34.7046,8,0,0,0
0,1405941740,413557,20.4751,33.8091,-2.04143,39.5784,-8.65798,-1.12667,3.34383,9.3494,0.489941,6.59618,-1.10554,34.6109,7,0,0,0
0,1405941741,414563,20.2619,33.8158,-2.2474,39.4855,-8.65142,-1.09454,3.40781,9.3626,1.38455,6.66026,-1.66996,34.8139,7,0,0,0
0,1405941742,415568,19.9253,34.2748,-2.35647,39.7156,-8.63128,-1.106,3.40375,9.34387,2.04154,6.73568,-2.38623,34.8454,8,0,0,0
0,1405941743,416569,20.3794,33.8896,-2.50801,39.6247,-8.62565,-1.1247,3.36133,9.32552,0.456762,6.44392,-2.49716,34.6998,8,0,0,0
0,1405941744,417576,20.0598,33.7847,-2.34554,39.3612,-8.64033,-1.14036,3.35582,9.33901,1.66707,6.82667,-1.99122,34.7661,8,0,0,0
0,1405941745,418582,20.4446,33.8319,-2.33949,39.5986,-8.64167,-1.13406,3.38363,9.34952,2.6442,6.57322,-2.07907,34.8299,7,0,0,0
0,1405941746,419588,20.4301,33.7068,-1.94392,39.4628,-8.64748,-1.14713,3.39072,9.35905,1.48256,6.65122,-3.35227,34.7117,7,0,0,0
0,1405941747,420591,20.2413,33.8622,-2.15698,39.5096,-8.66088,-1.12531,3.36785,9.36053,1.46793,6.87868,-2.27609,34.7754,7,0,0,0
0,1405941748,421596,20.3309,33.771,-1.9801,39.4683,-8.63323,-1.09732,3.34921,9.32491,2.23418,5.59964,-2.06034,34.9118,8,0,0,0
0,1405941749,422597,20.1283,33.912,-2.30013,39.5027,-8.64566,-1.11497,3.37427,9.34753,0.245708,6.26886,-2.25271,34.9014,8,0,0,0
0,1405941750,423599,19.9792,33.9267,-2.17278,39.4324,-8.63049,-1.1197,3.38472,9.33785,1.22106,6.81974,-2.11763,34.8289,8,0,0,0
0,1405941751,424600,20.1304,33.8901,-2.08491,39.473,-8.64017,-1.16243,3.36048,9.34327,2.0381,6.14318,-1.16522,34.9072,7,0,0,0
0,1405941752,425603,19.9706,33.6876,-2.04275,39.2155,-8.64382,-1.12926,3.36736,9.34505,1.73166,6.8472,-1.35047,34.9458,7,0,0,0
0,1405941753,426605,20.1721,33.5713,-1.5375,39.1958,-8.64389,-1.12477,3.39137,9.35325,1.09545,6.19885,-2.50101,34.9896,7,0,0,0
0,1405941754,427611,19.8777,34.1285,-2.34988,39.5651,-8.62731,-1.1249,3.39228,9.33827,1.80815,7.35042,-0.556483,34.9205,8,0,0,0
0,1405941755,428613,20.1679,33.6468,-2.49322,39.3074,-8.63127,-1.15181,3.38468,9.34246,0.591938,6.0319,-1.57227,35.055,8,0,0,0
0,1405941756,429618,20.2519,33.6139,-2.41789,39.3177,-8.64898,-1.1349,3.39279,9.3597,2.11738,7.05423,-1.60699,34.9565,8,0,0,0
0,1405941757,430638,20.0053,34.0405,-2.15461,39.5425,-8.62842,-1.1214,3.39026,9.33815,2.47871,7.45633,-1.34789,35.0335,7,0,0,0
0,1405941758,431643,20.093,34.1074,-1.94603,39.6337,-8.63173,-1.14954,3.3543,9.33164,1.73108,6.22551,-1.35221,35.0242,7,0,0,0
0,1405941759,432644,20.402,33.7015,-2.40644,39.4693,-8.62516,-1.13472,3.36258,9.32673,2.46436,6.45724,-1.0468,35.0083,7,0,0,0
0,1405941760,433648,20.125,33.729,-2.13738,39.3348,-8.63289,-1.13141,3.36407,9.33402,3.04573,7.76507,-1.90443,35.1066,8,0,0,0
0,1405941761,434649,20.1604,34.0573,-2.14026,39.6349,-8.61593,-1.12374,3.35815,9.31527,0.233643,5.99933,-1.57501,35.0872,6,0,0,0
0,1405941762,435658,20.1375,33.9694,-2.14381,39.5479,-8.63401,-1.17793,3.37768,9.34571,0.868009,6.32996,-1.97086,35.0205,8,0,0,0
0,1405941763,436659,19.8748,33.9758,-2.19152,39.4229,-8.63714,-1.16938,3.36901,9.3444,1.17062,6.21526,-1.5297,35.1719,7,0,0,0
0,1405941764,437664,20.1268,33.7538,-2.13348,39.3568,-8.67722,-1.16348,3.38762,9.38743,1.10176,6.25626,-2.04296,35.1237,7,0,0,0
0,1405941765,438666,19.9214,33.8453,-1.88417,39.3181,-8.64457,-1.1168,3.34182,9.33508,2.36875,6.9809,-2.47635,35.0824,8,0,0,0
0,1405941766,439670,20.3163,33.7313,-2.23188,39.4403,-8.60403,-1.10508,3.33393,9.29331,1.72149,6.94379,-3.22152,35.2255,7,0,0,0
0,1405941767,440674,20.3811,33.8158,-1.96316,39.5316,-8.62629,-1.16211,3.34287,9.32406,1.82937,6.63743,-0.921858,35.1667,8,0,0,0
0,1405941768,441682,20.3811,33.575,-1.94049,39.3247,-8.61304,-1.1622,3.37402,9.32305,1.84,6.91799,-1.73773,35.172,7,0,0,0
0,1405941769,442685,20.2639,33.8565,-2.65626,39.5467,-8.64833,-1.14785,3.37304,9.35354,1.63642,6.65613,-1.22023,35.2437,7,0,0,0
0,1405941770,443688,20.0928,33.885,-2.01989,39.4461,-8.64632,-1.11566,3.36055,9.34328,0.722491,6.8674,-2.30369,35.1582,7,0,0,0
0,1405941771,444695,20.3501,33.7838,-2.64606,39.5282,-8.63343,-1.12527,3.38189,9.34022,1.29638,6.3283,-1.15398,35.2733,7,0,0,0
0,1405941772,445700,20.2274,33.8343,-2.19247,39.4805,-8.63393,-1.15156,3.36843,9.33901,0.462815,6.78423,-1.98081,35.2992,7,0,0,0
0,1405941773,446708,19.9392,33.9696,-2.07382,39.4437,-8.63428,-1.1587,3.32119,9.32328,2.18939,6.78024,-2.08671,35.2248,6,0,0,0
0,1405941774,447710,20.0474,33.7094,-1.99696,39.271,-8.61737,-1.17297,3.3844,9.33215,0.471265,5.54819,-2.30047,35.2862,7,0,0,0
0,1405941775,448713,20.2964,34.0466,-2.30945,39.7045,-8.6395,-1.13845,3.40428,9.35554,1.54751,7.1053,-2.17128,35.2564,8,0,0,0
0,1405941776,449717,20.0167,33.9292,-1.58643,39.4256,-8.62824,-1.13286,3.36785,9.33126,1.19262,6.51201,-1.93748,35.2156,8,0,0,0
0,1405941777,450720,20.1342,33.8558,-1.91961,39.4371,-8.65248,-1.13577,3.38708,9.36096,1.37897,5.37332,-1.3228,35.3064,7,0,0,0
0,1405941778,451722,20.2039,33.821,-2.30903,39.4638,-8.6343,-1.11267,3.40238,9.34695,2.57866,7.72415,-1.17892,35.3382,7,0,0,0
0,1405941779,452725,20.1561,34.0078,-1.91787,39.5787,-8.62847,-1.14087,3.35228,9.32683,2.25471,6.4262,-1.01339,35.3488,8,0,0,0
0,1405941780,453733,20.3751,33.7687,-2.20138,39.5009,-8.64837,-1.14833,3.39098,9.36011,1.74254,6.19886,-1.75451,35.405,7,0,0,0
0,1405941781,454734,20.3491,33.7004,-2.03333,39.4201,-8.65249,-1.13757,3.38421,9.36015,2.25508,6.63194,-1.56207,35.3952,8,0,0,0
0,1405941782,455741,20.0302,33.8282,-2.26262,39.3786,-8.64141,-1.14755,3.39163,9.35382,1.10047,8.09656,-0.866237,35.2699,6,0,0,0
0,1405941783,456748,20.0759,33.616,-1.80083,39.1959,-8.6261,-1.10871,3.42087,9.34565,1.56979,6.04505,-2.59372,35.3912,8,0,0,0
0,1405941784,457749,20.1707,33.5982,-2.06397,39.2423,-8.64997,-1.13402,3.37382,9.35364,2.66605,7.12498,-1.86975,35.4967,7,0,0,0
0,1405941785,458752,19.8551,33.9915,-1.84101,39.4086,-8.65346,-1.11666,3.30868,9.33149,1.38705,7.8697,-1.91908,35.4398,7,0,0,0
0,1405941786,459753,19.8791,33.8567,-2.17307,39.3215,-8.6505,-1.12711,3.29933,9.32669,0.285752,6.59068,-2.39897,35.4392,7,0,0,0
0,1405941787,460763,20.3253,33.8364,-2.02165,39.5235,-8.62353,-1.16011,3.37878,9.3342,1.32124,7.91717,-1.8029,35.4389,8,0,0,0
0,1405941788,461767,20.1565,33.9212,-2.37887,39.5296,-8.71368,-1.14885,3.22944,9.36362,2.16356,7.19971,-2.34124,35.4501,7,0,0,0
0,1405941789,462768,20.3538,33.9304,-2.16609,39.6263,-8.59378,-1.12789,3.43683,9.324,2.47645,6.31512,-2.89949,35.3947,7,0,0,0
0,1405941790,463771,20.1385,33.9581,-2.22875,39.5434,-8.71805,-1.11396,3.24257,9.36801,1.32509,6.74813,-1.22052,35.4425,8,0,0,0
0,1405941791,464775,19.5989,33.915,-1.85264,39.2145,-8.60793,-1.12631,3.40122,9.3238,0.556052,7.06202,-1.9823,35.5572,6,0,0,0
0,1405941792,465780,19.9461,33.6116,-1.70134,39.1214,-8.61477,-1.15117,3.35975,9.31812,2.24362,6.32793,-2.10299,35.3571,8,0,0,0
0,1405941793,466781,20.0443,33.8033,-2.3598,39.3701,-8.65126,-1.14922,3.37206,9.35606,0.91075,6.18362,-2.27113,35.5361,8,0,0,0
0,1405941794,467786,20.1517,33.7828,-1.69351,39.3731,-8.65934,-1.16134,3.29617,9.33797,2.10615,7.04643,-0.677175,35.4607,8,0,0,0
0,1405941795,468794,19.9701,33.5949,-2.0196,39.1344,-8.63325,-1.10306,3.37309,9.33421,1.13989,6.48886,-1.20483,35.5893,6,0,0,0
0,1405941796,469802,19.9007,33.6921,-1.59291,39.1629,-8.59779,-1.12694,3.42324,9.32258,1.2928,6.33805,-1.18968,35.5583,7,0,0,0
0,1405941797,470806,20.013,34.2594,-2.03653,39.7287,-8.58598,-1.13946,3.43499,9.31754,1.69062,6.72626,-0.198593,35.5823,8,0,0,0
0,1405941798,471811,20.0882,33.8782,-2.03038,39.4384,-8.66574,-1.1293,3.33057,9.35217,1.23145,8.18825,-1.73533,35.5934,7,0,0,0
0,1405941799,472812,19.9571,34.102,-2.20525,39.5739,-8.62854,-1.16641,3.35767,9.332,0.290615,6.68048,-2.25838,35.5873,8,0,0,0
0,1405941800,473815,19.9437,33.937,-1.72298,39.401,-8.54581,-1.1517,3.48803,9.30181,0.816214,7.12974,-0.564881,35.6174,7,0,0,0
0,1405941801,474820,20.115,34.1355,-2.40473,39.6942,-8.60434,-1.15948,3.40874,9.3273,2.94847,6.89064,-2.88209,35.543,7,0,0,0
0,1405941802,475826,20.0473,34.0164,-2.30061,39.5513,-8.60035,-1.13091,3.4914,9.35066,0.765041,6.21652,-1.68963,35.6544,9,0,0,0
0,1405941803,476832,19.9781,34.2173,-2.56878,39.7057,-8.64495,-1.15215,3.33509,9.33732,0.592685,7.2018,-2.46487,35.5053,7,0,0,0
0,1405941804,477833,20.0636,34.296,-2.26768,39.7984,-8.63511,-1.12672,3.38302,9.34235,0.608257,8.02974,-0.666234,35.5318,7,0,0,0
0,1405941805,478841,20.1835,34.1343,-2.0176,39.7063,-8.62347,-1.10592,3.29324,9.29692,0.938551,7.50175,-0.559923,35.6012,6,0,0,0
0,1405941806,479846,20.1409,34.2276,-2.08841,39.7687,-8.62238,-1.12359,3.42707,9.34627,2.50025,7.5959,-0.64842,35.6504,7,0,0,0
0,1405941807,480851,20.0498,34.3134,-2.31351,39.8089,-8.68057,-1.11279,3.29561,9.35156,2.53544,7.20019,-1.56678,35.7122,7,0,0,0
0,1405941808,481859,19.6203,33.904,-2.21359,39.2344,-8.62317,-1.13104,3.40055,9.33821,0.889341,6.65173,-1.49558,35.7428,7,0,0,0
0,1405941809,482865,20.1356,33.9036,-2.23542,39.4955,-8.63117,-1.14823,3.37176,9.33726,0.443515,6.09788,-1.3488,35.7135,8,0,0,0
0,1405941810,483866,19.7853,34.3908,-2.2284,39.7385,-8.67386,-1.13373,3.38785,9.38076,3.18329,6.67376,-2.3165,35.7157,7,0,0,0
0,1405941811,484873,19.9028,34.0984,-2.19581,39.5429,-8.60771,-1.1262,3.38654,9.31825,2.2177,7.04798,-2.06403,35.7416,7,0,0,0
0,1405941812,485878,20.3928,34.0723,-1.94806,39.7566,-8.66655,-1.09531,3.37088,9.36332,2.49694,7.70517,-0.850069,35.7045,7,0,0,0
0,1405941813,486885,19.6023,34.2216,-1.776,39.4782,-8.72324,-1.12244,3.19847,9.35868,0.139722,6.19442,-1.23114,35.6492,7,0,0,0
0,1405941814,487886,19.6376,34.3551,-1.63845,39.6055,-8.6179,-1.14114,3.38085,9.32741,2.1231,6.69996,-0.522325,35.7427,8,0,0,0
0,1405941815,488893,19.6283,34.4011,-1.84437,39.6498,-8.63196,-1.13378,3.36926,9.33532,0.194657,6.20437,-1.00995,35.7192,7,0,0,0
0,1405941816,489898,19.878,34.3382,-2.15644,39.7354,-8.71013,-1.13621,3.24072,9.36267,0.397136,6.21734,-1.82293,35.7601,7,0,0,0
0,1405941817,490904,19.8134,34.1695,-1.8229,39.5404,-8.63102,-1.11724,3.39679,9.34243,0.203687,7.55426,-0.131674,35.6846,6,0,0,0
0,1405941818,491911,19.9057,34.2277,-1.87952,39.6397,-8.60009,-1.14666,3.42947,9.32939,2.3597,6.82025,-2.44254,35.7947,7,0,0,0
0,1405941819,492912,19.8104,34.2196,-1.62167,39.5735,-8.72159,-1.09753,3.19749,9.35386,-0.119293,6.38608,-1.62534,35.9143,7,0,0,0
0,1405941820,493914,19.7546,34.0872,-1.67972,39.4335,-8.66683,-1.10661,3.30022,9.33969,0.709441,6.73683,-1.59122,35.7194,8,0,0,0
0,1405941821,494919,19.5393,33.8691,-2.01682,39.1532,-8.64374,-1.10154,3.39679,9.35232,1.5349,6.16225,-1.32236,35.7818,8,0,0,0
0,1405941822,495927,19.5933,34.0644,-1.79224,39.3382,-8.62368,-1.10015,3.36843,9.32333,2.39932,5.96694,-3.0896,35.7594,8,0,0,0
0,1405941823,496930,19.9418,34.001,-1.89686,39.4631,-8.61542,-1.13836,3.39171,9.32872,1.28924,6.04181,-2.26889,35.7508,7,0,0,0
0,1405941824,497937,19.7694,34.19,-1.84948,39.5374,-8.62247,-1.12238,3.36911,9.32511,2.32286,7.11597,-0.221945,35.9372,6,0,0,0
0,1405941825,498944,19.9779,33.9528,-2.17367,39.4542,-8.59882,-1.103,3.47776,9.34083,1.8872,7.22993,-1.0121,35.884,7,0,0,0
0,1405941826,499946,20.1754,33.7735,-1.72462,39.3785,-8.62488,-1.13942,3.41204,9.34499,2.08463,6.13459,-3.31022,35.8333,7,0,0,0
0,1405941827,500957,19.7011,34.1787,-2.02568,39.5021,-8.57766,-1.1411,3.41228,9.30172,0.854814,6.91722,-1.80913,35.9088,8,0,0,0
0,1405941828,501963,19.1025,32.6469,-3.29781,37.9684,-8.63755,-1.12239,3.38014,9.34304,0.972493,6.59316,-1.40651,35.753,8,0,0,0
0,1405941829,502967,19.236,32.7063,-3.26944,38.0843,-8.64696,-1.10274,3.37241,9.34661,1.94136,6.90259,-1.26313,35.983,8,0,0,0
0,1405941830,503971,19.1947,32.494,-3.13197,37.8696,-8.62587,-1.10549,3.39486,9.33557,1.07032,6.22413,-1.17358,35.858,6,0,0,0
0,1405941831,504979,18.9671,32.9351,-2.66815,38.0998,-8.63378,-1.11486,3.42065,9.3534,2.02103,6.82476,-1.53138,35.9197,8,0,0,0
0,1405941832,505984,19.427,32.4929,-2.56528,37.9444,-8.64574,-1.13819,3.36958,9.34871,2.30171,6.10398,-1.4388,35.969,7,0,0,0
0,1405941833,506990,19.3794,32.7053,-3.09438,38.1415,-8.64849,-1.12741,3.37336,9.35131,2.26154,7.82574,-1.43553,35.9851,7,0,0,0
0,1405941834,507996,18.8691,33.2245,-2.93867,38.3216,-8.60741,-1.14126,3.38341,9.31866,1.34097,7.6559,-2.2796,36.0123,7,0,0,0
0,1405941836,509003,19.0021,32.7158,-3.01941,37.9542,-8.62032,-1.13497,3.35853,9.32083,0.737812,6.76586,-0.26575,35.9808,8,0,0,0
0,1405941837,510006,19.3759,32.7122,-3.19864,38.1542,-8.62142,-1.11717,3.39044,9.33124,1.41129,6.171,-1.68219,35.9916,7,0,0,0
0,1405941838,511007,19.4351,32.2762,-3.50451,37.8385,-8.6327,-1.15172,3.37405,9.33993,2.11008,7.32557,-1.23042,36.0294,8,0,0,0
0,1405941839,512008,18.9568,32.5945,-2.30132,37.7764,-8.62873,-1.10929,3.40199,9.34126,1.87566,6.84082,-1.87218,36.0107,6,0,0,0
0,1405941840,513011,18.986,32.5131,-3.0349,37.7727,-8.60954,-1.12352,3.37565,9.31566,1.73154,6.06085,-1.69908,36.1024,8,0,0,0
0,1405941841,514020,19.1168,32.8348,-3.43413,38.1493,-8.63244,-1.10512,3.40592,9.34562,2.45984,6.34932,-1.10668,36.1304,6,0,0,0
0,1405941842,515027,18.6838,32.9027,-3.39557,37.9895,-8.61757,-1.12599,3.37026,9.32143,1.86979,7.77932,-2.34549,36.1135,8,0,0,0
0,1405941843,516032,19.1092,32.7144,-2.92785,37.9995,-8.61342,-1.11498,3.40452,9.32871,0.764726,6.58903,-1.69324,36.1272,7,0,0,0
0,1405941844,517034,19.2793,32.6778,-3.10839,38.0683,-8.63087,-1.11147,3.38829,9.33851,2.42667,7.00945,-1.88292,36.2149,8,0,0,0
0,1405941845,518042,19.1413,33.1893,-3.02491,38.4327,-8.62744,-1.11284,3.39506,9.33797,0.679335,7.14336,-2.02767,36.0974,8,0,0,0
0,1405941846,519043,18.9225,32.7487,-2.83516,37.9286,-8.61281,-1.12643,3.3539,9.31117,2.32936,8.2678,-1.08352,36.1811,7,0,0,0
0,1405941847,520046,19.0902,32.9625,-2.97831,38.2078,-8.64794,-1.11875,3.40682,9.36188,2.55567,6.88269,-2.55583,36.1544,8,0,0,0
0,1405941848,521047,19.0845,32.5763,-3.0808,37.8804,-8.63072,-1.12232,3.39119,9.34073,1.41066,6.55924,-0.969446,36.1151,7,0,0,0
0,1405941849,522049,19.1989,32.8433,-2.68906,38.138,-8.62361,-1.10366,3.39963,9.335,1.05629,7.72091,-2.0679,36.2484,7,0,0,0
0,1405941850,523051,19.3127,32.6228,-2.85114,38.0178,-8.64629,-1.10824,3.39351,9.35427,1.78765,7.24287,-0.734539,36.1394,7,0,0,0
0,1405941851,524064,19.0736,33.2268,-3.0432,38.4328,-8.62716,-1.12026,3.39955,9.34023,1.73814,6.51834,-1.48831,36.3244,7,0,0,0
0,1405941852,525070,18.8948,32.7766,-3.07282,37.9573,-8.628,-1.1121,3.40042,9.34034,0.965135,7.03085,-0.811457,36.3029,8,0,0,0
0,1405941853,526079,19.6079,32.6204,-2.78478,38.1617,-8.62899,-1.13738,3.35964,9.32954,2.0709,6.65606,-1.1658,36.2459,8,0,0,0
0,1405941854,527083,18.8061,32.9886,-3.25493,38.1118,-8.59589,-1.12231,3.33888,9.28962,1.78383,6.19322,-1.77286,36.2459,7,0,0,0
0,1405941855,528089,19.2926,32.696,-2.98488,38.0807,-8.63065,-1.11689,3.40226,9.34403,1.69708,7.59537,-2.58591,36.2102,6,0,0,0
0,1405941856,529092,19.1235,32.4693,-3.21507,37.8194,-8.63116,-1.10791,3.38023,9.33544,-0.0744534,7.97491,-1.63452,36.1983,8,0,0,0
0,1405941857,530096,19.4335,32.8141,-2.90283,38.2473,-8.63919,-1.119,3.35446,9.33489,0.971272,6.61293,-0.534078,36.179,7,0,0,0
0,1405941858,531101,19.3663,32.593,-3.10488,38.0394,-8.63681,-1.12553,3.39057,9.34652,1.73058,6.94437,-2.77817,36.2684,7,0,0,0
0,1405941859,532105,19.102,32.9198,-2.98376,38.1772,-8.63348,-1.09462,3.34812,9.32443,0.651613,6.41649,-1.58933,36.4324,7,0,0,0
0,1405941860,533109,19.218,32.6315,-2.73692,37.9689,-8.6712,-1.07834,3.2686,9.32932,0.777306,6.71158,-1.58828,36.412,7,0,0,0
0,1405941861,534112,19.5097,32.5956,-3.14327,38.118,-8.60354,-1.09953,3.44578,9.33291,1.23413,6.21526,-2.62811,36.3789,8,0,0,0
0,1405941862,535118,18.6138,32.1643,-2.6037,37.2531,-8.62291,-1.12174,3.39828,9.33601,2.39384,7.16459,-1.59347,36.4125,6,0,0,0
0,1405941863,536119,19.0134,32.8637,-3.60763,38.1385,-8.62341,-1.15431,3.40898,9.34435,2.46508,6.6307,-1.35607,36.3499,6,0,0,0
0,1405941864,537126,19.391,32.4451,-2.93084,37.9116,-8.63886,-1.11567,3.37517,9.34165,0.720061,6.18034,-3.48219,36.4413,7,0,0,0
0,1405941865,538132,18.9091,32.5254,-2.84646,37.7301,-8.62626,-1.12352,3.38507,9.33453,0.429353,7.45528,-2.06694,36.3364,7,0,0,0
0,1405941866,539137,19.3199,32.5048,-3.10733,37.9405,-8.62819,-1.14568,3.40355,9.34572,1.66787,6.95699,-2.06385,36.4393,7,0,0,0
0,1405941867,540140,19.219,33.274,-2.9312,38.5373,-8.62395,-1.14536,3.38236,9.33406,0.286287,6.44585,-1.60121,36.5363,7,0,0,0
0,1405941868,541141,18.7453,32.874,-3.10059,37.9697,-8.59713,-1.13158,3.38769,9.30954,3.02811,6.2063,-1.0096,36.4804,8,0,0,0
0,1405941869,542144,18.8181,32.9302,-3.24656,38.0665,-8.62123,-1.14675,3.38477,9.33259,1.58029,7.29916,-2.24253,36.486,7,0,0,0
0,1405941870,543150,19.1027,32.6127,-3.19717,37.9305,-8.61894,-1.13746,3.40053,9.33507,1.92937,6.92683,-1.28413,36.3659,8,0,0,0
0,1405941871,544154,19.0716,32.6524,-3.11375,37.9421,-8.61262,-1.15374,3.36684,9.31901,1.01807,5.6736,-2.37406,36.5434,7,0,0,0
0,1405941872,545160,19.0306,32.9051,-2.52729,38.0959,-8.64566,-1.13422,3.39751,9.35826,2.61243,7.43255,-1.55981,36.4731,7,0,0,0
0,1405941873,546166,18.6488,32.5537,-2.96786,37.6342,-8.61747,-1.13297,3.35875,9.31803,2.204,7.04916,-2.33475,36.5256,7,0,0,0
0,1405941874,547169,19.0218,33.1221,-3.3165,38.3393,-8.6206,-1.13691,3.39305,9.33381,2.12589,6.31278,-1.81629,36.4973,7,0,0,0
0,1405941875,548172,19.107,32.7005,-3.13613,38.0031,-8.6107,-1.09834,3.37876,9.31485,1.56981,7.2778,-1.23145,36.51,8,0,0,0
0,1405941876,549175,19.1828,32.5716,-3.12371,37.9295,-8.62328,-1.12858,3.41794,9.34436,1.66313,7.57008,-2.3572,36.5138,8,0,0,0
0,1405941877,550182,19.1477,32.6621,-3.25725,38.0007,-8.61438,-1.13082,3.39323,9.32739,2.4865,6.60066,-2.36881,36.4941,7,0,0,0
0,1405941878,551186,19.0933,32.3905,-2.86648,37.7083,-8.6299,-1.14637,3.39485,9.34421,2.33617,6.57097,-1.53299,36.5608,6,0,0,0
0,1405941879,552195,18.9734,32.4468,-3.0526,37.7107,-8.62435,-1.1086,3.39322,9.33393,2.31101,6.23211,-0.847925,36.5059,7,0,0,0
0,1405941880,553203,19.308,32.6564,-3.01265,38.0568,-8.61253,-1.13342,3.36402,9.31541,2.48891,7.7974,-1.75239,36.6636,7,0,0,0
0,1405941881,554208,19.2331,32.2516,-2.93265,37.6653,-8.615,-1.13445,3.43141,9.34237,1.46276,6.98082,-1.38483,36.5603,8,0,0,0
0,1405941882,555209,19.0429,33.1116,-2.98796,38.3137,-8.63755,-1.13309,3.35301,9.33455,2.39814,7.09963,-1.14787,36.5915,7,0,0,0
0,1405941883,556210,19.1153,32.3894,-2.75493,37.7102,-8.62594,-1.08145,3.41013,9.33838,1.94062,7.756,-3.173,36.5652,8,0,0,0
0,1405941884,557217,19.1785,32.4466,-3.29774,37.8348,-8.61724,-1.15307,3.37559,9.32636,1.1345,6.15678,-0.950029,36.5714,7,0,0,0
0,1405941885,558222,19.1402,32.6145,-2.81734,37.9208,-8.64117,-1.13751,3.41188,9.35973,1.18675,5.91029,-2.42435,36.5822,7,0,0,0
0,1405941886,559224,19.144,32.8902,-2.88753,38.1653,-8.61854,-1.18843,3.34998,9.32276,1.87638,6.65507,-1.10765,36.6427,7,0,0,0
0,1405941887,560230,19.334,32.7527,-2.94181,38.147,-8.61902,-1.09938,3.38609,9.32533,2.43224,5.62398,-0.899402,36.668,6,0,0,0
0,1405941888,561242,19.1903,32.5094,-2.6191,37.8416,-8.64699,-1.12279,3.36966,9.34803,1.36578,7.25125,-1.45897,36.6517,8,0,0,0
0,1405941889,562243,19.2084,33.1287,-3.12122,38.4216,-8.6475,-1.14283,3.37068,9.3513,3.20309,6.81977,-2.99832,36.7218,8,0,0,0
0,1405941890,563248,18.7275,32.9808,-3.01106,38.0463,-8.63063,-1.1117,3.40609,9.34479,1.12307,5.90376,-0.418581,36.6708,8,0,0,0
0,1405941891,564249,19.3395,32.466,-3.06317,37.9136,-8.64148,-1.10716,3.35704,9.33652,1.04017,6.73179,-1.72792,36.7481,7,0,0,0
0,1405941892,565254,18.8257,32.8289,-3.35273,37.9919,-8.61924,-1.14093,3.39226,9.33276,0.861351,6.70018,-1.26801,36.7883,7,0,0,0
0,1405941893,566256,19.1211,32.7727,-3.10041,38.0694,-8.65015,-1.12854,3.36648,9.3505,0.402588,6.09353,-1.62002,36.7256,7,0,0,0
0,1405941894,567258,18.9429,33.0699,-2.8078,38.2144,-8.64496,-1.11434,3.37312,9.34639,2.70436,6.74319,-1.16482,36.827,7,0,0,0
0,1405941895,568266,19.1862,32.611,-3.35243,37.9846,-8.61494,-1.10541,3.35189,9.30991,0.746559,6.52443,-1.76828,36.7282,8,0,0,0
0,1405941896,569267,19.0867,32.5005,-2.91787,37.8034,-8.61705,-1.14252,3.39418,9.33163,0.910994,6.02181,-1.71778,36.7375,7,0,0,0
0,1405941897,570273,19.5311,32.4645,-3.25685,38.0265,-8.62459,-1.13418,3.37921,9.33215,0.424555,7.21283,-1.74093,36.7546,8,0,0,0
0,1405941898,571280,19.0473,32.8161,-3.11555,38.0711,-8.63283,-1.12939,3.37075,9.33612,-0.00297621,7.61932,-0.66013,36.7162,7,0,0,0
0,1405941899,572281,19.2189,32.7061,-3.52612,38.0984,-8.63254,-1.1373,3.36343,9.33418,2.58299,6.47928,-2.38241,36.7875,7,0,0,0
0,1405941900,573286,19.2788,32.8964,-3.34719,38.2759,-8.64,-1.14302,3.38332,9.34896,1.79915,7.23132,-0.854703,36.8437,8,0,0,0
0,1405941901,574289,19.42,32.4543,-3.07728,37.9458,-8.62239,-1.13657,3.36002,9.32347,1.83449,6.57133,-1.42926,36.7887,8,0,0,0
0,1405941902,575291,18.1786,32.3904,-2.77211,37.2463,-8.63256,-1.1034,3.37314,9.33363,1.48216,7.94433,-0.447825,36.8188,8,0,0,0
0,1405941903,576292,18.7685,32.0073,-3.15019,37.2378,-8.64478,-1.12629,3.36475,9.34464,1.43734,6.38581,-1.97641,36.8429,9,0,0,0
0,1405941904,577293,18.704,32.5725,-2.94046,37.6757,-8.61436,-1.05987,3.36476,9.30871,1.51475,6.98254,-1.62782,36.9039,6,0,0,0
0,1405941905,578298,18.4612,32.1685,-2.79681,37.1947,-8.59591,-1.14603,3.4125,9.31923,1.95734,7.48906,-2.15711,36.7312,12,0,0,0
0,1405941906,579307,18.6989,32.2918,-3.1105,37.4444,-8.61142,-1.11535,3.42516,9.33447,1.21318,7.0388,-0.806945,36.8043,11,0,0,0
0,1405941907,580308,18.4306,32.5192,-3.2475,37.5197,-8.62346,-1.13702,3.42845,9.34939,2.29614,6.5649,-1.47223,36.8596,9,0,0,0
0,1405941908,581310,18.5541,32.7146,-2.90013,37.7214,-8.61393,-1.1532,3.4075,9.33492,2.11585,6.37308,-1.35261,36.8546,12,0,0,0
0,1405941909,582313,18.5446,32.4701,-3.24672,37.5333,-8.65297,-1.13605,3.36033,9.3518,1.18871,5.91453,-1.46581,36.9314,12,0,0,0
0,1405941910,583317,18.3862,32.3396,-2.8251,37.3079,-8.61324,-1.12446,3.36578,9.31561,1.66626,8.28209,-0.930164,36.905,12,0,0,0
0,1405941911,584320,18.1658,32.6601,-2.81419,37.478,-8.62501,-1.14921,3.39263,9.33924,2.56216,6.94507,-0.918416,36.8146,11,0,0,0
0,1405941912,585339,18.4247,32.5954,-3.11612,37.5718,-8.62093,-1.15653,3.37613,9.33039,2.26689,6.89713,-1.04443,36.9229,6,0,0,0
0,1405941913,586363,18.4934,31.6016,-2.76763,36.7195,-8.62253,-1.13768,3.36451,9.32535,1.69058,6.42685,-1.98721,36.898,11,0,0,0
0,1405941914,587367,18.4802,32.0082,-3.05075,37.0857,-8.63276,-1.13551,3.39078,9.34405,2.33504,7.45404,-1.50639,36.875,11,0,0,0
0,1405941915,588369,18.6846,31.9342,-2.80183,37.1047,-8.61298,-1.17479,3.36173,9.32012,1.75044,6.02242,-0.670429,36.9462,9,0,0,0
0,1405941916,589370,18.84,32.6428,-3.29116,37.8329,-8.6277,-1.10123,3.39,9.33498,1.47754,7.2843,-1.98004,36.944,11,0,0,0
0,1405941917,590374,18.8383,32.9331,-3.47991,38.0996,-8.64299,-1.15865,3.36957,9.34867,2.25099,7.04335,-2.9051,36.9568,11,0,0,0
0,1405941918,591379,19.1827,32.4076,-3.12155,37.7885,-8.61926,-1.1711,3.3525,9.32215,1.22141,7.31994,-2.50983,36.9257,11,0,0,0
0,1405941919,592381,19.2657,32.3453,-3.15213,37.7799,-8.62666,-1.15301,3.34895,9.32546,1.8517,6.77681,-0.66889,36.9856,11,0,0,0
0,1405941920,593384,19.2112,32.5625,-2.57527,37.8948,-8.63034,-1.15836,3.38498,9.34252,2.03406,6.85063,-2.20638,36.9346,10,0,0,0
0,1405941921,594389,18.7046,32.4271,-2.48264,37.5172,-8.6187,-1.1285,3.41432,9.3388,1.64794,6.03789,-1.98898,36.9564,11,0,0,0
0,1405941922,595400,19.0505,32.7745,-3.39378,38.0606,-8.63167,-1.13109,3.35283,9.3288,1.13573,6.78407,-2.38553,37.0134,12,0,0,0
0,1405941923,596404,19.0951,32.8392,-2.98957,38.1047,-8.64046,-1.13683,3.38869,9.35056,1.9165,6.67241,-0.955035,37.0191,12,0,0,0
0,1405941924,597408,19.3012,32.3794,-2.79406,37.7991,-8.64766,-1.13757,3.37423,9.35209,1.24833,7.34341,-0.682257,37.0049,8,0,0,0
0,1405941925,598410,18.951,32.8452,-2.73177,38.0185,-8.60692,-1.13565,3.34803,9.30474,1.37536,6.94343,-2.17227,36.968,8,0,0,0
0,1405941926,599419,19.1971,32.6167,-2.98505,37.9643,-8.62439,-1.15011,3.4044,9.34306,1.27853,6.89946,-2.1626,37.0001,7,0,0,0
0,1405941927,600422,18.7682,33.0827,-3.22531,38.1722,-8.62105,-1.12748,3.4135,9.34054,0.796141,7.61318,-1.17776,37.0289,8,0,0,0
0,1405941928,601428,19.4188,32.3746,-3.16588,37.8844,-8.62406,-1.11908,3.36072,9.32315,2.42354,6.96901,-2.1041,37.0305,6,0,0,0
0,1405941929,602430,18.8437,32.9648,-3.01405,38.09,-8.63171,-1.1503,3.3749,9.33914,1.1424,6.48,-1.94146,37.0241,7,0,0,0
0,1405941930,603436,18.9659,32.9102,-3.26713,38.1243,-8.59624,-1.15633,3.37723,9.30796,1.96008,7.16757,-0.90515,37.035,7,0,0,0
0,1405941931,604444,19.1965,32.6236,-3.11757,37.9806,-8.61182,-1.13582,3.3611,9.314,2.90337,7.27718,-1.20159,37.1396,7,0,0,0
0,1405941932,605447,19.2505,32.7231,-2.93287,38.0787,-8.62512,-1.13508,3.37543,9.33138,1.55694,6.25837,-0.720859,37.1444,8,0,0,0
0,1405941933,606461,19.4224,32.4723,-3.33981,37.9847,-8.63389,-1.13879,3.38619,9.34383,0.803083,6.05496,-1.41055,37.0508,8,0,0,0
0,1405941934,607464,19.2551,32.7486,-2.66965,38.0835,-8.64638,-1.16014,3.40771,9.36581,1.42952,5.28355,-1.97007,37.1823,8,0,0,0
0,1405941935,608472,19.0918,32.8627,-3.11978,38.1338,-8.61813,-1.13245,3.35537,9.31736,1.92273,7.46515,-1.86828,37.0986,7,0,0,0
0,1405941936,609480,18.739,33.047,-3.17199,38.1224,-8.62908,-1.14132,3.37278,9.33484,0.981886,6.43983,-2.30024,37.1586,8,0,0,0
0,1405941937,610482,18.7784,31.9755,-3.29924,37.2283,-8.63885,-1.12448,3.36825,9.3402,1.01608,8.2578,-1.57422,37.182,8,0,0,0
0,1405941938,611484,19.1912,32.6258,-2.90268,37.9627,-8.64437,-1.1557,3.38018,9.35342,1.16343,7.37795,-1.47601,37.1701,8,0,0,0
0,1405941939,612493,19.0203,32.8297,-3.1842,38.0749,-8.63191,-1.15032,3.35661,9.33273,1.07292,6.79032,-2.03748,37.1004,8,0,0,0
0,1405941940,613494,19.2182,32.3038,-2.99057,37.707,-8.63799,-1.15969,3.39029,9.35168,2.40629,7.27198,-2.07587,37.1383,8,0,0,0
0,1405941941,614501,19.2755,32.3716,-2.49807,37.7585,-8.62559,-1.154,3.37661,9.33456,0.439631,6.74734,-2.45033,37.2055,8,0,0,0
0,1405941942,615507,18.8506,32.6767,-2.98135,37.8418,-8.61172,-1.13992,3.38039,9.32139,0.78195,5.86561,-2.14588,37.2209,8,0,0,0
0,1405941943,616509,19.0828,32.6462,-3.06192,37.9381,-8.61973,-1.1424,3.38798,9.33184,1.7394,5.67764,-1.34239,37.2354,7,0,0,0
0,1405941944,617516,18.9183,32.898,-2.75089,38.0493,-8.60425,-1.12583,3.39976,9.31982,0.135486,7.53025,-2.11863,37.2775,8,0,0,0
0,1405941945,618521,19.2055,32.5302,-2.75887,37.8771,-8.62875,-1.16107,3.38566,9.34163,1.11325,5.94556,-0.933502,37.1856,7,0,0,0
0,1405941946,619526,18.9666,32.6117,-2.84964,37.8335,-8.62666,-1.2262,3.39213,9.35037,1.25852,7.00227,-0.560785,37.2216,7,0,0,0
0,1405941947,620529,19.2737,32.9149,-2.7001,38.2382,-8.61628,-1.10384,3.37172,9.31812,0.932102,7.12244,-1.3198,37.2742,8,0,0,0
0,1405941948,621536,19.6048,32.4626,-2.99592,38.0414,-8.62205,-1.12379,3.38318,9.32998,1.32097,7.24681,-2.71271,37.1422,7,0,0,0
0,1405941949,622538,18.824,32.8471,-3.00671,37.9778,-8.61553,-1.12322,3.38312,9.32386,1.76464,6.64054,-2.22142,37.1637,7,0,0,0
0,1405941950,623544,19.0473,33.0203,-3.01889,38.2394,-8.59714,-1.12512,3.40139,9.31377,0.732459,6.27934,-1.72714,37.1581,7,0,0,0
0,1405941951,624545,19.4587,32.2474,-3.07749,37.789,-8.62107,-1.1283,3.36152,9.32179,2.26328,6.79017,-0.876204,37.2527,7,0,0,0
0,1405941952,625554,19.3467,32.4997,-2.61755,37.9128,-8.62915,-1.14221,3.38082,9.33792,1.17346,6.13345,-1.92745,37.266,7,0,0,0
0,1405941953,626569,18.7877,32.4817,-2.94193,37.639,-8.62989,-1.13233,3.38807,9.34003,1.97134,6.89039,-1.20608,37.388,7,0,0,0
0,1405941954,627570,18.9646,32.7796,-3.37699,38.0205,-8.65157,-1.12954,3.41102,9.36806,0.684475,7.04082,-2.08427,37.2722,7,0,0,0
0,1405941955,628571,19.1658,32.6624,-3.02796,37.9911,-8.63087,-1.13788,3.35736,9.33052,1.80649,7.74302,-1.93648,37.4085,7,0,0,0
0,1405941956,629576,18.9715,33.1058,-3.03423,38.2769,-8.64876,-1.13628,3.35628,9.34648,1.79639,7.26516,-0.878182,37.2875,8,0,0,0
0,1405941957,630584,19.421,32.6197,-2.68775,38.0584,-8.63521,-1.14897,3.39866,9.35083,1.19064,7.09766,-2.0674,37.3216,8,0,0,0
0,1405941958,631586,19.361,32.3894,-2.8312,37.841,-8.6177,-1.14196,3.36327,9.32096,0.864152,4.99134,-1.15999,37.3077,8,0,0,0
0,1405941959,632592,19.1164,33.2073,-3.17591,38.4479,-8.62688,-1.1534,3.37738,9.33595,1.67744,6.68398,-1.19829,37.437,7,0,0,0
0,1405941960,633595,18.7525,32.9894,-2.97231,38.063,-8.5978,-1.17708,3.39461,9.31832,1.58515,7.3633,-1.27341,37.3626,8,0,0,0
0,1405941961,634605,19.2986,32.6199,-3.36647,38.0503,-8.64097,-1.14165,3.36208,9.34202,2.46653,5.7035,-1.05426,37.4482,7,0,0,0
0,1405941962,635612,18.8018,32.6873,-2.72344,37.8072,-8.63232,-1.15493,3.36993,9.33848,1.99902,7.37788,-2.18025,37.3651,8,0,0,0
0,1405941963,636620,19.1512,32.3315,-2.871,37.6874,-8.63778,-1.15322,3.38173,9.34758,1.26917,7.20539,-1.98973,37.4958,6,0,0,0
0,1405941964,637621,19.3474,32.468,-2.83433,37.9016,-8.60437,-1.15531,3.37795,9.3156,2.17381,6.70938,-1.65597,37.4011,7,0,0,0
0,1405941965,638627,19.1605,32.5761,-3.00651,37.9126,-8.62093,-1.18571,3.38015,9.33551,1.69927,7.16125,-1.05529,37.4599,8,0,0,0
0,1405941966,639629,19.2516,32.9201,-3.17982,38.2684,-8.60832,-1.15629,3.38699,9.32265,1.1711,6.84018,-0.977503,37.4595,7,0,0,0
0,1405941967,640636,19.3896,32.4896,-2.95642,37.9509,-8.64009,-1.1729,3.37539,9.34987,1.19638,7.8736,-1.19556,37.5157,7,0,0,0
0,1405941968,641642,18.8496,33.1059,-2.95174,38.2102,-8.62197,-1.14148,3.37336,9.3285,1.10619,6.90724,-1.51594,37.5292,7,0,0,0
0,1405941969,642656,18.8676,33.0202,-2.9034,38.1411,-8.62749,-1.1531,3.34232,9.32386,1.57153,7.03169,-2.5917,37.4631,9,0,0,0
0,1405941970,643662,18.8161,32.7378,-2.92234,37.8728,-8.62508,-1.15317,3.39758,9.34159,2.28737,6.50621,-2.41841,37.4852,8,0,0,0
0,1405941971,644663,18.8604,32.779,-2.77096,37.9191,-8.62776,-1.12022,3.39812,9.34025,1.43073,7.23128,-1.86285,37.5613,8,0,0,0
0,1405941972,645664,20.0773,31.8979,-2.64935,37.7835,-8.64057,-1.13027,3.39394,9.35179,2.4688,7.24652,-2.28157,37.539,7,0,0,0
0,1405941973,646668,20.5755,31.922,-2.98272,38.0954,-8.62757,-1.12152,3.38509,9.33551,2.80661,6.79486,-0.84769,37.5477,8,0,0,0
0,1405941974,647675,20.3548,32.2505,-2.85919,38.2438,-8.60129,-1.13986,3.37921,9.31131,1.76757,8.3474,-0.747569,37.5034,8,0,0,0
0,1405941975,648682,20.9494,32.3182,-3.04713,38.6346,-8.60159,-1.16036,3.37124,9.31123,0.966885,6.46916,-2.63549,37.6189,4,0,0,0
0,1405941976,649685,21.0412,32.5495,-3.20463,38.8906,-8.63093,-1.14356,3.39498,9.34487,1.75365,7.38357,-1.07404,37.6296,7,0,0,0
0,1405941977,650690,21.0701,32.3781,-3.22845,38.7648,-8.63017,-1.14421,3.35675,9.33042,1.04882,6.44036,-1.23047,37.5807,7,0,0,0
0,1405941978,651697,21.2815,32.763,-3.35149,39.2116,-8.6359,-1.12876,3.38351,9.3435,1.27893,7.90069,-2.05757,37.5888,8,0,0,0
0,1405941979,652703,21.2969,32.7814,-2.99663,39.2066,-8.64516,-1.13821,3.38134,9.35242,1.05866,6.98262,-1.99527,37.6808,7,0,0,0
0,1405941980,653710,20.8664,32.7833,-3.35572,39.0052,-8.61134,-1.1842,3.37104,9.32316,0.778698,6.94604,-2.06903,37.5908,7,0,0,0
0,1405941981,654713,21.0758,32.9232,-3.10976,39.2147,-8.62426,-1.14634,3.39588,9.33937,0.600203,7.62835,-1.05168,37.5326,7,0,0,0
0,1405941982,655722,21.0322,32.5538,-3.04066,38.876,-8.59806,-1.16201,3.38821,9.31434,0.538575,7.32416,-1.74428,37.7515,7,0,0,0
0,1405941983,656725,21.0778,32.7692,-2.90757,39.0711,-8.62075,-1.19451,3.34389,9.3234,1.96704,7.40966,-1.55448,37.7202,8,0,0,0
0,1405941984,657730,20.7751,32.5954,-3.49658,38.8109,-8.64971,-1.12457,3.37501,9.35269,1.61286,7.80579,-2.04257,37.6618,7,0,0,0
0,1405941985,658738,19.9696,33.1063,-4.13861,38.8836,-8.64673,-1.12946,3.33502,9.33617,1.02218,6.0966,-2.19217,37.768,8,0,0,0
0,1405941986,659744,19.9709,33.7357,-4.3217,39.4412,-8.62792,-1.1426,3.40392,9.34522,1.19844,5.99385,-2.2848,37.7383,8,0,0,0
0,1405941987,660746,20.0904,33.4239,-4.10929,39.2131,-8.63991,-1.1389,3.40363,9.35574,1.65496,7.57263,-1.9969,37.7745,8,0,0,0
0,1405941988,661748,20.533,32.6791,-3.94172,38.7951,-8.62475,-1.13993,3.37645,9.33199,3.05033,6.7182,-1.93842,37.6778,7,0,0,0
0,1405941989,662749,20.4196,33.475,-4.24979,39.4411,-8.64479,-1.12892,3.32233,9.32978,1.92153,7.10063,-2.44793,37.7063,8,0,0,0
0,1405941990,663753,20.1447,33.1748,-4.17359,39.0358,-8.61363,-1.22046,3.43508,9.35328,1.0617,6.81992,-0.591703,37.7109,8,0,0,0
0,1405941991,664759,20.0841,32.9763,-4.37101,38.8576,-8.60749,-1.20035,3.42723,9.34214,1.36755,6.35584,-1.07186,37.8267,8,0,0,0
0,1405941992,665768,20.3327,32.8733,-3.51704,38.8129,-8.60873,-1.1524,3.37713,9.31897,1.66157,7.70876,-1.91024,37.8716,8,0,0,0
0,1405941993,666772,19.5307,33.0843,-3.9418,38.6207,-8.60559,-1.1306,3.40011,9.32175,1.36681,7.3221,-2.89438,37.7774,7,0,0,0
0,1405941994,667779,20.0688,33.2754,-4.33941,39.1003,-8.6124,-1.08878,3.36775,9.31132,0.785117,6.13371,-1.21985,37.8463,8,0,0,0
0,1405941995,668783,19.9226,33.3868,-4.27129,39.113,-8.62641,-1.1522,3.42509,9.35274,1.32631,6.89091,-2.03864,37.7773,7,0,0,0
0,1405941996,669787,20.0583,33.5073,-3.97662,39.2541,-8.64135,-1.14984,3.37452,9.34786,2.12451,6.37966,-2.27023,37.8783,7,0,0,0
0,1405941997,670793,20.0078,33.5423,-3.77688,39.2385,-8.64891,-1.13515,3.36223,9.34862,1.50197,7.0007,-1.92008,37.8357,7,0,0,0
0,1405941998,671800,19.7055,33.4868,-3.63356,39.024,-8.64037,-1.12449,3.36258,9.33956,2.58948,7.35758,-1.85099,37.8552,6,0,0,0
0,1405941999,672811,19.9117,33.3429,-4.07543,39.0491,-8.5953,-1.14459,3.39403,9.31175,-1.36326,6.83194,-0.884163,37.9804,6,0,0,0
0,1405942000,673812,19.8966,33.508,-4.02666,39.1775,-8.6169,-1.14652,3.36652,9.32196,2.30768,6.85759,-1.82222,37.704,6,0,0,0
0,1405942001,674820,19.989,33.198,-3.90501,38.9476,-8.63849,-1.15735,3.38676,9.35057,0.13612,6.48062,-1.52527,37.8703,5,0,0,0
0,1405942002,675826,20.1866,33.0876,-3.95071,38.9602,-8.64782,-1.12581,3.41979,9.36735,0.531902,7.03129,-1.78881,37.9583,7,0,0,0
0,1405942003,676828,19.6444,33.5166,-4.03193,39.0579,-8.62559,-1.10442,3.41725,9.34334,0.904316,7.49607,-0.571121,37.9391,7,0,0,0
0,1405942004,677834,21.0226,32.6176,-2.9869,38.9202,-8.61825,-1.17009,3.37305,9.3285,0.588482,7.48887,-1.96427,37.9662,8,0,0,0
0,1405942005,678838,21.4228,32.3057,-2.71572,38.8583,-8.63742,-1.12746,3.40522,9.35263,1.74246,6.89929,-1.22312,37.9068,7,0,0,0
0,1405942006,679841,20.6617,32.6353,-2.85097,38.7311,-8.62814,-1.15094,3.35122,9.32739,1.11026,6.92781,-2.10116,37.8674,6,0,0,0
0,1405942007,680846,20.9626,32.6069,-3.11542,38.8889,-8.62446,-1.17632,3.36256,9.33123,-0.119681,6.27734,-1.21534,38.0202,7,0,0,0
0,1405942008,681852,20.9561,32.4987,-2.85769,38.7748,-8.62978,-1.18963,3.36518,9.33878,1.10618,8.25766,-1.34285,37.9497,8,0,0,0
0,1405942009,682858,21.3268,32.9197,-3.44468,39.3752,-8.62636,-1.13781,3.39129,9.3386,1.3458,8.05783,-1.34754,37.9405,8,0,0,0
0,1405942010,683863,21.0679,32.2966,-2.94326,38.6729,-8.41641,-1.12775,3.73614,9.2772,2.13904,6.69741,-1.96147,37.9215,8,0,0,0
0,1405942011,684874,20.8485,32.8378,-2.92661,39.007,-8.58991,-1.15536,3.484,9.34129,1.77316,7.59197,-2.19093,37.9025,8,0,0,0
0,1405942012,685883,20.4608,32.6217,-2.99549,38.6237,-8.6792,-1.14459,3.29319,9.35327,2.76272,7.34165,-1.42663,38.0402,7,0,0,0
0,1405942013,686888,20.9185,32.5394,-3.19296,38.8148,-8.63715,-1.15132,3.36263,9.33987,2.46751,6.39311,-2.20735,37.9733,7,0,0,0
0,1405942014,687891,19.7988,33.034,-2.52826,38.5957,-8.63532,-1.11118,3.37028,9.33608,3.22274,7.41835,-1.85647,37.9167,7,0,0,0
0,1405942015,688898,19.1065,33.0613,-2.08288,38.242,-8.63668,-1.14835,3.36859,9.34122,0.242865,7.57578,-2.45018,38.0261,8,0,0,0
0,1405942016,689904,19.2301,32.7714,-2.39721,38.0724,-8.62076,-1.14296,3.38957,9.33344,1.76538,6.85975,-1.88739,37.9903,7,0,0,0
0,1405942017,690912,19.1984,32.8306,-2.195,38.0952,-8.64523,-1.13217,3.38912,9.35457,1.35427,6.73611,-0.477274,38.0737,9,0,0,0
0,1405942018,691918,18.9711,32.9631,-2.30078,38.102,-8.63174,-1.12332,3.34167,9.32392,2.10838,6.8583,-1.7958,38.0417,8,0,0,0
0,1405942019,692923,19.1591,32.9475,-2.87723,38.2216,-8.63917,-1.14865,3.38251,9.34858,2.29569,7.76012,-0.637809,38.0048,8,0,0,0
0,1405942020,693931,19.125,32.9431,-2.49369,38.1737,-8.63676,-1.16666,3.37755,9.34679,1.08698,7.43492,-1.02737,38.0022,8,0,0,0
0,1405942021,694933,19.4858,33.0249,-3.32696,38.4891,-8.63787,-1.13591,3.35198,9.33482,1.82883,7.70674,-3.1391,38.0018,7,0,0,0
0,1405942022,695934,19.7201,33.3444,-3.15995,38.8679,-8.62195,-1.15915,3.3868,9.33553,1.37825,7.50433,-1.74234,38.0186,8,0,0,0
0,1405942023,696941,20.0293,32.9866,-3.46973,38.747,-8.6357,-1.20546,3.36927,9.34775,2.19621,7.9648,-2.02422,38.0839,7,0,0,0
0,1405942024,697943,19.9772,33.0775,-3.58558,38.8081,-8.62816,-1.12891,3.38474,9.33681,-0.235564,8.37154,-1.55111,38.141,7,0,0,0
0,1405942025,698950,19.8212,33.0206,-3.36354,38.6595,-8.62345,-1.12378,3.3556,9.32131,2.55288,6.47918,-2.00066,38.1074,8,0,0,0
0,1405942026,699957,19.0751,32.6508,-2.54493,37.9,-8.65475,-1.16466,3.40776,9.37411,0.347632,6.8388,-2.0553,38.1354,7,0,0,0
0,1405942027,700964,19.0988,32.2548,-3.16875,37.6188,-8.64766,-1.20284,3.36683,9.35759,1.46491,6.33579,-2.79838,38.1147,8,0,0,0
0,1405942028,701965,19.1127,32.25,-2.62568,37.58,-8.62172,-1.13898,3.33094,9.31271,1.80375,6.65528,-2.50375,38.1409,7,0,0,0
0,1405942029,702970,18.7793,32.4592,-2.95449,37.6164,-8.62158,-1.15505,3.39759,9.33859,1.33761,6.5262,-2.34554,38.1108,8,0,0,0
0,1405942030,703976,19.1568,32.6691,-2.89651,37.9821,-8.64516,-1.16297,3.38501,9.35679,1.23681,7.41904,-1.55394,38.1199,6,0,0,0
0,1405942031,704983,19.1431,32.4144,-3.01578,37.7656,-8.61601,-1.16107,3.38009,9.32785,2.02192,7.76324,-2.1211,38.2018,7,0,0,0
0,1405942032,705990,19.2508,32.476,-2.97162,37.8697,-8.62743,-1.14523,3.38427,9.33796,1.90647,6.56004,-0.846467,38.2351,8,0,0,0
0,1405942034,707000,19.1094,32.7576,-2.99693,38.0423,-8.66638,-1.16374,3.37113,9.37149,-0.225597,8.07193,-1.21448,38.1483,8,0,0,0
0,1405942035,708001,19.0925,32.6653,-2.96546,37.9518,-8.63599,-1.15634,3.36451,9.3401,1.09736,6.19866,-2.43422,38.1112,7,0,0,0
0,1405942036,709008,18.9982,32.4843,-2.99093,37.7506,-8.63917,-1.17047,3.3592,9.34288,1.99252,6.068,-1.61994,38.2621,7,0,0,0
0,1405942037,710014,18.7691,32.8105,-2.96406,37.9156,-8.62065,-1.13502,3.41688,9.34233,0.395881,7.02448,-1.94755,38.1794,8,0,0,0
0,1405942038,711016,19.4327,32.4341,-2.8366,37.9163,-8.61493,-1.14074,3.3763,9.32297,1.98257,7.04373,-0.743009,38.2036,7,0,0,0
0,1405942039,712019,19.1994,32.4076,-2.96078,37.784,-8.62327,-1.16545,3.3872,9.33768,2.83041,7.25989,-2.62079,38.2793,8,0,0,0
0,1405942040,713020,19.2002,32.2783,-2.8007,37.6614,-8.61847,-1.15283,3.37211,9.32621,1.12486,6.65402,-1.70072,38.2638,7,0,0,0
0,1405942041,714026,18.8712,32.9303,-2.89894,38.0649,-8.62964,-1.14899,3.35877,9.33125,1.7254,8.04665,-2.34931,38.2648,7,0,0,0
0,1405942042,715031,18.9415,32.6379,-2.85949,37.8443,-8.63445,-1.13976,3.37499,9.34042,1.54094,7.66759,-2.13134,38.2585,7,0,0,0
0,1405942043,716033,19.1468,32.5124,-2.94831,37.8464,-8.64171,-1.13985,3.33828,9.33395,0.975426,6.7599,-1.86702,38.3255,7,0,0,0
0,1405942044,717038,19.1232,32.9874,-3.03326,38.25,-8.6327,-1.1517,3.36993,9.33843,1.28107,7.20622,-1.25463,38.2678,7,0,0,0
0,1405942045,718047,19.2412,32.7774,-2.88515,38.117,-8.65874,-1.15956,3.33256,9.35009,2.14257,7.27497,-2.16058,38.2412,7,0,0,0
0,1405942046,719049,19.448,32.3977,-2.84265,37.8935,-8.66167,-1.11353,3.37015,9.36068,1.5014,6.74216,-2.85381,38.2066,6,0,0,0
0,1405942047,720053,19.3593,32.5858,-3.01904,38.0228,-8.63337,-1.1129,3.35207,9.32791,3.02165,6.99664,-1.52502,38.1785,7,0,0,0
0,1405942048,721058,19.3009,32.4794,-3.163,37.9135,-8.65331,-1.15007,3.39303,9.36563,3.41232,7.04439,-1.69076,38.3022,7,0,0,0
0,1405942049,722068,19.0424,32.5118,-3.18529,37.8123,-8.63608,-1.13971,3.3503,9.33303,0.472216,7.01619,-0.335741,38.2877,8,0,0,0
0,1405942050,723074,19.089,32.7471,-3.05778,38.0278,-8.65553,-1.12426,3.25154,9.31421,0.179986,7.43287,-1.48217,38.2138,7,0,0,0
0,1405942051,724079,19.2871,32.3842,-3.01101,37.8127,-8.68447,-1.11224,3.29463,9.35477,1.39982,6.20548,-1.19713,38.3237,8,0,0,0
0,1405942052,725080,18.9127,33.1145,-3.28818,38.2763,-8.64665,-1.12979,3.31139,9.32771,2.16937,6.78411,-2.75309,38.3753,8,0,0,0
0,1405942053,726090,19.1455,32.8894,-2.95272,38.1704,-8.62863,-1.11663,3.34899,9.32286,1.07188,6.35515,-1.71943,38.2793,7,0,0,0
0,1405942054,727098,19.1149,32.7431,-2.84883,38.0212,-8.64445,-1.15961,3.35001,9.34312,1.29646,6.80233,-2.21458,38.2556,7,0,0,0
0,1405942055,728103,18.9735,32.7397,-2.57463,37.9277,-8.64135,-1.17457,3.35059,9.34232,1.448,7.28376,-0.888995,38.365,7,0,0,0
0,1405942056,729109,18.9807,32.6803,-3.34721,37.9404,-8.55689,-1.15351,3.51282,9.32153,1.03864,7.59917,-0.996663,38.2906,7,0,0,0
0,1405942057,730112,19.5203,34.0336,-1.91869,39.2811,-8.64404,-1.13209,3.3705,9.34672,-0.689087,6.77396,-2.24252,38.3268,7,0,0,0
0,1405942058,731123,19.5497,34.1107,-2.124,39.3731,-8.63164,-1.14795,3.35424,9.33134,2.499,6.32282,-1.4376,38.3838,7,0,0,0
0,1405942059,732131,19.6774,34.166,-1.97832,39.477,-8.64462,-1.14765,3.35398,9.34322,0.482273,7.53699,-0.854378,38.2516,7,0,0,0
0,1405942060,733135,20.0652,33.783,-1.99506,39.3431,-8.6195,-1.16151,3.33979,9.3166,1.11433,6.59222,-0.96916,38.3767,8,0,0,0
0,1405942061,734143,19.6384,34.0138,-1.73593,39.3143,-8.61161,-1.16945,3.43097,9.34339,2.30793,7.01009,-3.37975,38.352,8,0,0,0
0,1405942062,735147,19.5782,34.2772,-1.90665,39.5204,-8.65079,-1.1535,3.35655,9.35057,1.95589,6.53082,-2.20559,38.3265,8,0,0,0
0,1405942063,736155,19.5529,34.1316,-2.06936,39.3899,-8.62558,-1.14777,3.36882,9.33097,1.1077,7.5929,-1.44233,38.4145,8,0,0,0
0,1405942064,737162,19.6157,34.1534,-2.15279,39.4444,-8.62986,-1.10381,3.36727,9.32906,1.05602,6.90518,-0.797485,38.4493,7,0,0,0
0,1405942065,738169,19.7326,34.1833,-2.0717,39.5243,-8.6258,-1.14089,3.39129,9.33847,1.61578,6.72345,-1.82911,38.3945,7,0,0,0
0,1405942066,739174,19.6603,34.0998,-1.79439,39.4023,-8.61619,-1.16603,3.4276,9.34595,1.16865,6.66329,-0.755276,38.4472,8,0,0,0
0,1405942067,740177,19.6068,34.0373,-2.01085,39.332,-8.62195,-1.13837,3.41085,9.34172,0.0897062,6.18714,-2.91554,38.4378,7,0,0,0
0,1405942068,741178,19.0682,32.9312,-2.92425,38.1656,-8.62229,-1.12908,3.34931,9.31862,1.49841,6.95077,-0.445671,38.3913,8,0,0,0
0,1405942069,742181,19.1429,32.4306,-2.91816,37.7718,-8.62218,-1.15541,3.35678,9.32443,2.0685,8.40093,-1.04775,38.3957,7,0,0,0
0,1405942070,743188,18.6935,32.9133,-3.13912,37.9814,-8.64997,-1.16828,3.36248,9.35378,1.97329,7.60603,-1.91684,38.4061,8,0,0,0
0,1405942071,744189,18.8664,33.0094,-3.13855,38.1498,-8.64363,-1.10416,3.37091,9.34316,1.85289,8.30524,-1.71539,38.3997,7,0,0,0
0,1405942072,745197,19.2527,32.6305,-3.49936,38.0481,-8.62144,-1.15853,3.37278,9.3299,1.05752,6.25787,-1.81534,38.3863,8,0,0,0
0,1405942073,746198,19.804,32.64,-3.36089,38.3258,-8.60879,-1.13119,3.37489,9.31562,2.85418,6.78553,-1.16529,38.4812,8,0,0,0
0,1405942074,747205,16.766,32.4766,-3.12131,36.682,-8.61835,-1.15544,3.3671,9.32461,2.76516,6.84383,-2.60921,38.4873,7,0,0,0
0,1405942075,748208,16.4474,32.4605,-2.8251,36.4991,-8.611,-1.15669,3.36562,9.31744,2.86211,7.98371,-2.85883,38.4711,8,0,0,0
0,1405942076,749213,16.6175,32.4711,-3.16582,36.6134,-8.61475,-1.14587,3.37514,9.32301,1.22142,7.0467,-2.10665,38.4414,7,0,0,0
0,1405942077,750216,16.5708,32.8594,-3.16545,36.9371,-8.62003,-1.14597,3.36269,9.3234,2.38734,7.82111,-2.95249,38.3991,7,0,0,0
0,1405942078,751225,16.4765,32.3616,-3.26703,36.4613,-8.62676,-1.15627,3.36595,9.33207,2.40144,7.66678,0.344452,38.4744,6,0,0,0
0,1405942079,752231,16.3617,32.4256,-3.27141,36.4668,-8.63964,-1.1588,3.37406,9.34722,0.415329,7.52298,-1.24621,38.6331,8,0,0,0
0,1405942080,753235,16.4656,32.5472,-3.19722,36.615,-8.62976,-1.12018,3.37353,9.33318,0.325701,6.86009,-1.15426,38.4603,7,0,0,0
0,1405942081,754243,16.3566,32.6655,-3.48646,36.6977,-8.62143,-1.14137,3.34744,9.31864,2.87366,7.10561,-0.404763,38.4359,7,0,0,0
0,1405942082,755244,16.5779,32.7504,-3.05523,36.8341,-8.61952,-1.12683,3.34949,9.31585,1.34244,7.17104,-0.826049,38.5252,7,0,0,0
0,1405942083,756246,17.8215,33.5007,-4.31962,38.1911,-8.63769,-1.15584,3.34323,9.33396,0.951598,8.68409,-2.22544,38.4675,8,0,0,0
0,1405942084,757251,17.7775,33.5363,-4.20188,38.1887,-8.65813,-1.14861,3.36622,9.36023,2.83586,7.33441,-1.22612,38.5846,7,0,0,0
0,1405942085,758254,17.7193,33.0729,-4.31196,37.7675,-8.63725,-1.14259,3.3819,9.34585,0.984118,6.44261,-1.70595,38.4872,7,0,0,0
0,1405942086,759260,17.7492,33.6802,-4.44368,38.3293,-8.6387,-1.14854,3.36189,9.34069,0.435826,7.7458,-1.53457,38.5241,8,0,0,0
0,1405942087,760263,17.8692,33.3811,-4.07354,38.0815,-8.61412,-1.14365,3.35852,9.31615,1.61828,6.61707,-2.42883,38.6354,8,0,0,0
0,1405942088,761270,19.2656,33.2397,-3.01159,38.5371,-8.62957,-1.15715,3.34409,9.32692,1.04179,6.40512,-1.29518,38.4902,8,0,0,0
0,1405942089,762274,19.1381,33.2093,-2.55609,38.4143,-8.64333,-1.16036,3.36013,9.3458,1.82797,7.61776,-2.46015,38.6096,7,0,0,0
0,1405942090,763276,18.8994,33.3953,-2.71035,38.4679,-8.623,-1.14682,3.36628,9.32755,1.66543,8.27492,-1.60791,38.4895,7,0,0,0
0,1405942091,764292,18.9091,33.1903,-2.89264,38.3082,-8.62121,-1.14504,3.37179,9.32767,0.989186,7.45745,-1.9089,38.5672,6,0,0,0
0,1405942092,765297,19.0553,33.2672,-2.9812,38.4539,-8.6393,-1.14132,3.36819,9.34263,0.960674,7.89005,-1.96262,38.6229,7,0,0,0
0,1405942093,766305,19.0093,33.3368,-2.69585,38.4703,-8.63934,-1.12861,3.33847,9.33046,1.92672,7.13553,-1.30582,38.6598,7,0,0,0
0,1405942094,767312,18.9361,33.2126,-2.76935,38.3317,-8.64366,-1.15236,3.36731,9.34771,2.69936,6.04333,-2.40181,38.6669,7,0,0,0
0,1405942095,768321,18.8682,33.5032,-2.6639,38.5431,-8.6486,-1.11007,3.3708,9.34841,0.34045,6.02839,-1.12932,38.6122,6,0,0,0
0,1405942096,769334,19.1105,33.1275,-2.57167,38.3308,-8.63503,-1.13452,3.36528,9.33681,2.24846,7.36912,-1.62079,38.6249,7,0,0,0
0,1405942097,770339,19.0909,33.1163,-2.52658,38.3084,-8.62991,-1.12866,3.37693,9.33557,1.47006,8.06486,-1.0909,38.7154,7,0,0,0
0,1405942098,771347,18.9861,33.3755,-2.90647,38.5077,-8.64664,-1.14249,3.393,9.35853,3.33991,7.48579,-1.22544,38.5591,7,0,0,0
0,1405942099,772349,18.8054,33.4913,-2.81638,38.5129,-8.63459,-1.161,3.35354,9.33544,1.84752,7.03878,-0.79353,38.6965,8,0,0,0
0,1405942100,773354,19.155,33.0271,-3.0583,38.3021,-8.61479,-1.14242,3.39019,9.32808,-0.299171,8.7248,-1.46369,38.6276,8,0,0,0
0,1405942101,774359,19.1997,32.9721,-3.07449,38.2784,-8.64307,-1.14228,3.39682,9.3566,1.39056,7.1397,-0.568459,38.6305,8,0,0,0
0,1405942102,775362,19.1152,32.813,-3.20972,38.1102,-8.63604,-1.14569,3.34823,9.33298,1.11935,7.70574,-1.5554,38.7122,7,0,0,0
0,1405942103,776375,19.3459,32.8252,-3.17435,38.234,-8.62638,-1.1395,3.39119,9.33879,1.5282,7.52241,-2.2449,38.6719,7,0,0,0
0,1405942104,777382,19.2763,32.8325,-2.9495,38.187,-8.63697,-1.14969,3.38334,9.34698,0.931822,7.95496,-1.31669,38.628,8,0,0,0
0,1405942105,778390,19.3334,32.5481,-3.0365,37.9787,-8.63523,-1.1016,3.35336,9.32876,2.2061,7.07297,-2.08766,38.6563,7,0,0,0
0,1405942106,779396,19.2578,32.8635,-2.64279,38.1818,-8.62413,-1.11352,3.39624,9.33542,0.870828,7.41354,-1.81828,38.6661,8,0,0,0
0,1405942107,780404,19.2926,32.9827,-2.93978,38.3237,-8.63764,-1.15755,3.33627,9.33163,1.60529,8.01007,-2.47013,38.7607,6,0,0,0
0,1405942108,781411,19.0988,32.7989,-2.98995,38.0719,-8.607,-1.15637,3.37181,9.31594,2.01831,6.99483,-1.33657,38.685,8,0,0,0
0,1405942109,782414,19.0304,33.0189,-3.02647,38.2304,-8.64772,-1.1265,3.35544,9.34403,2.47562,7.14407,-1.40106,38.7045,8,0,0,0
0,1405942110,783418,18.7261,32.8981,-2.89683,37.9651,-8.61656,-1.15567,3.39275,9.33228,0.629364,7.45822,-1.76984,38.7636,8,0,0,0
0,1405942111,784423,19.0963,32.8304,-2.28062,38.0487,-8.62602,-1.12862,3.39783,9.33955,1.88046,7.39229,-2.71719,38.74,8,0,0,0
0,1405942112,785425,18.879,32.6781,-2.45881,37.8196,-8.61384,-1.18789,3.39874,9.33599,1.03138,8.50111,-1.92763,38.8165,7,0,0,0
0,1405942113,786429,19.0226,32.7674,-2.46915,37.9692,-8.64463,-1.14899,3.3809,9.35309,0.527738,7.79788,-0.440063,38.8116,8,0,0,0
0,1405942114,787432,18.6622,32.8021,-2.89626,37.8503,-8.61757,-1.11187,3.4114,9.33469,0.915751,8.50196,-1.5083,38.7484,7,0,0,0
0,1405942115,788434,18.6437,32.8337,-2.25217,37.8247,-8.60706,-1.1402,3.33019,9.29902,2.23479,7.28765,-1.95502,38.8071,7,0,0,0
0,1405942116,789436,18.7489,33.0153,-2.55033,38.0531,-8.62196,-1.13061,3.36212,9.32311,2.33994,7.15107,-0.921923,38.8128,6,0,0,0
0,1405942117,790447,19.3104,33.0388,-2.95986,38.3825,-8.63486,-1.15897,3.34732,9.3332,1.13664,7.56929,-1.01729,38.8472,8,0,0,0
0,1405942118,791454,19.0989,32.5505,-3.16383,37.8723,-8.63485,-1.12661,3.36184,9.33445,2.54524,6.72457,-1.52919,38.8044,8,0,0,0
0,1405942119,792459,19.0445,33.1255,-2.83839,38.3151,-8.60632,-1.17365,3.33872,9.30555,1.75411,6.09121,-3.59793,38.8878,7,0,0,0
0,1405942120,793465,19.1266,32.9342,-3.3242,38.2301,-8.62032,-1.14544,3.36869,9.32577,1.64564,7.07473,-1.93889,38.7876,8,0,0,0
0,1405942121,794473,18.9185,32.7421,-3.0083,37.9342,-8.63383,-1.16569,3.37391,9.34265,1.8025,7.77566,-1.22598,38.931,6,0,0,0
0,1405942122,795476,19.296,32.8687,-2.92737,38.2264,-8.65424,-1.15793,3.35164,9.35255,2.48103,7.32968,-1.37409,38.7539,8,0,0,0
0,1405942123,796485,19.0987,32.4326,-2.78346,37.741,-8.63394,-1.12598,3.40006,9.34736,0.722992,6.82487,-1.30346,38.9728,8,0,0,0
0,1405942124,797492,19.409,32.5617,-2.82029,38.0122,-8.61319,-1.14277,3.35788,9.31496,1.59784,6.52163,-2.68278,38.8296,7,0,0,0
0,1405942125,798494,18.9063,32.8196,-3.19052,38.0099,-8.65849,-1.10577,3.39423,9.36551,0.83258,6.82413,-1.47761,38.933,8,0,0,0
0,1405942126,799498,19.3605,32.7364,-3.07788,38.1572,-8.61839,-1.15002,3.35891,9.32102,1.75884,7.53764,-3.20955,38.8634,6,0,0,0
0,1405942127,800504,19.1854,32.7451,-3.04533,38.0735,-8.63231,-1.12891,3.36577,9.33379,1.72393,8.04945,-1.94987,38.8233,8,0,0,0
0,1405942128,801509,18.8512,32.7398,-2.80307,37.8829,-8.62461,-1.13677,3.36646,9.32787,1.5672,7.42345,-2.57976,38.9189,7,0,0,0
0,1405942129,802518,19.269,32.5572,-2.82744,37.9376,-8.63431,-1.13767,3.36697,9.33714,2.78165,6.60773,-2.28302,38.8876,7,0,0,0
0,1405942130,803525,18.8374,32.7242,-2.91007,37.8707,-8.62252,-1.15624,3.36864,9.32912,1.2059,7.88522,-1.77991,38.8936,8,0,0,0
0,1405942131,804531,19.3866,32.5559,-2.8705,37.9996,-8.6467,-1.14649,3.37561,9.35278,1.5565,6.6445,-2.14874,38.8684,8,0,0,0
0,1405942132,805539,19.1967,32.2117,-3.15504,37.6307,-8.62674,-1.14762,3.35195,9.32595,2.72476,7.34641,-1.64205,38.9239,8,0,0,0
0,1405942133,806548,18.9521,33.0124,-3.1369,38.1948,-8.62963,-1.14267,3.33626,9.32238,0.360183,7.45883,-1.59459,38.966,8,0,0,0
0,1405942134,807562,19.1717,32.7486,-2.81188,38.0517,-8.59576,-1.14087,3.35679,9.29821,2.12124,7.7183,-0.476894,38.9433,7,0,0,0
0,1405942135,808570,19.0949,33.0852,-2.98569,38.3166,-8.62487,-1.16299,3.36467,9.3307,0.90303,6.37804,-1.18477,39.0295,7,0,0,0
0,1405942136,809574,18.7916,32.5833,-3.24323,37.7534,-8.64081,-1.09033,3.39342,9.34707,0.500521,6.02046,-1.46356,38.9232,7,0,0,0
0,1405942137,810577,18.9771,32.8915,-2.95853,38.0885,-8.63742,-1.16104,3.39314,9.35235,1.77596,8.21915,-1.31802,38.9221,8,0,0,0
0,1405942138,811582,19.3979,32.459,-3.21952,37.9504,-8.6438,-1.16442,3.37684,9.35276,1.75336,6.89472,-1.43575,39.0692,7,0,0,0
0,1405942139,812584,19.1622,32.7803,-3.17718,38.1029,-8.63171,-1.13053,3.37623,9.3372,-0.38497,7.30507,-2.57716,39.0134,7,0,0,0
0,1405942140,813589,19.1065,33.0821,-3.23361,38.3398,-8.61482,-1.13754,3.36648,9.31892,1.87403,6.78972,-2.10021,39.0092,6,0,0,0
0,1405942141,814602,19.0382,33.0801,-3.24369,38.3049,-8.63755,-1.15924,3.40761,9.35751,2.20643,7.84142,-1.78008,39.0652,7,0,0,0
0,1405942142,815605,19.1399,32.6628,-3.0916,37.9835,-8.60902,-1.1387,3.35386,9.30915,0.417705,7.16114,-1.25039,39.1808,7,0,0,0
0,1405942143,816614,19.062,32.5598,-2.99772,37.8482,-8.63534,-1.13487,3.36755,9.33796,0.861475,8.26507,-2.29034,39.0534,5,0,0,0
0,1405942144,817620,19.1544,32.5979,-2.86821,37.9176,-8.63589,-1.16942,3.36758,9.34273,1.14577,8.58415,-1.9539,38.92,7,0,0,0
0,1405942145,818627,19.006,32.7691,-2.84897,37.9889,-8.62087,-1.14407,3.40528,9.33939,1.93354,7.04116,-1.83547,39.1464,8,0,0,0
0,1405942146,819631,18.9893,32.6264,-2.96698,37.8666,-8.6198,-1.14135,3.35014,9.31811,1.16905,7.21036,-1.32605,39.1071,8,0,0,0
0,1405942147,820632,18.8935,32.8563,-2.87107,38.0098,-8.64335,-1.13021,3.38217,9.35007,0.379189,7.19618,-1.47592,39.0851,8,0,0,0
0,1405942148,821639,19.191,32.5638,-3.03743,37.9199,-8.64816,-1.14447,3.37649,9.35421,2.79632,5.94632,-2.49446,39.0409,8,0,0,0
0,1405942149,822641,18.9942,32.6925,-3.23992,37.9483,-8.6442,-1.1307,3.39028,9.35386,1.87949,7.86152,-2.53018,39.1,8,0,0,0
0,1405942150,823642,19.1752,32.9608,-2.63355,38.2236,-8.64415,-1.14613,3.36117,9.34518,0.398888,8.16895,-2.02062,39.1766,8,0,0,0
0,1405942151,824650,19.1123,32.8157,-2.85909,38.0831,-8.64144,-1.18064,3.3731,9.35127,0.884277,6.49198,-1.70284,39.1091,7,0,0,0
0,1405942152,825658,19.2527,32.6603,-2.92903,38.0256,-8.62179,-1.16268,3.33367,9.31668,1.03016,7.00108,-0.558097,39.1734,7,0,0,0
0,1405942153,826662,19.0095,32.8783,-3.15906,38.1094,-8.6205,-1.16477,3.38068,9.33267,1.94295,8.13671,-1.97251,39.0893,8,0,0,0
0,1405942154,827665,18.9732,32.8696,-2.85859,38.06,-8.63019,-1.1785,3.38824,9.34608,2.33056,6.58388,-1.18277,39.1673,8,0,0,0
0,1405942155,828671,19.1412,32.5951,-2.68511,37.8951,-8.6301,-1.12496,3.35625,9.32784,1.92564,7.27053,-1.2652,39.2443,8,0,0,0
0,1405942156,829678,19.2259,33.3926,-2.80788,38.6339,-8.61401,-1.15514,3.36934,9.32137,2.08252,8.4496,-2.76991,39.1629,7,0,0,0
0,1405942157,830685,19.3078,32.5757,-3.16691,37.9999,-8.63895,-1.1595,3.33667,9.33324,-0.0343468,7.1914,-0.802115,39.2703,7,0,0,0
0,1405942158,831691,19.1917,32.6114,-2.64857,37.932,-8.62702,-1.14245,3.38235,9.33654,0.999291,7.65871,-2.9729,39.2139,7,0,0,0
0,1405942159,832697,19.0479,33.0063,-2.96977,38.2238,-8.63617,-1.14056,3.35093,9.33343,1.70917,8.3372,-2.27088,39.2348,7,0,0,0
0,1405942160,833700,19.3242,32.6471,-2.95642,38.0526,-8.62702,-1.15481,3.35979,9.32991,1.96904,7.78116,-2.36212,39.2356,7,0,0,0
0,1405942161,834706,19.0581,32.7463,-3.03516,38.0098,-8.64877,-1.12603,3.37041,9.35034,1.18252,6.61588,-1.50326,39.2439,8,0,0,0
0,1405942162,835708,19.04,32.7392,-3.08037,37.9982,-8.64438,-1.11647,3.38471,9.3503,1.94471,7.14989,-2.23007,39.109,8,0,0,0
0,1405942163,836715,19.1393,32.703,-3.4634,38.0499,-8.63664,-1.15585,3.39055,9.35005,2.07625,7.96216,-1.84535,39.304,8,0,0,0
0,1405942164,837720,19.3285,32.6752,-2.96633,38.0797,-8.64544,-1.17135,3.35065,9.34572,1.56283,7.50486,-0.879248,39.2516,6,0,0,0
0,1405942165,838722,19.3761,32.6798,-2.9878,38.1094,-8.61632,-1.17859,3.35263,9.32042,1.46515,7.89188,-1.86331,39.3366,8,0,0,0
0,1405942166,839727,19.062,32.9655,-3.13614,38.2089,-8.62807,-1.12467,3.36552,9.32927,2.34859,7.07776,-1.44698,39.2832,7,0,0,0
0,1405942167,840729,19.1576,33.0518,-3.10729,38.3287,-8.63007,-1.14255,3.36625,9.33355,1.48369,6.88844,-1.64649,39.2674,8,0,0,0
0,1405942168,841737,19.0334,32.8183,-3.16556,38.0701,-8.64174,-1.15442,3.38267,9.35173,2.26936,7.47314,-0.694913,39.2262,8,0,0,0
0,1405942169,842745,19.064,32.7745,-2.70775,38.0123,-8.63862,-1.13826,3.36581,9.34077,2.22603,7.28439,-0.222087,39.2794,9,0,0,0
0,1405942170,843752,19.0619,32.4324,-2.87702,37.7292,-8.63673,-1.13922,3.33038,9.32643,0.811529,7.22481,-1.27305,39.3156,7,0,0,0
0,1405942171,844760,18.9557,32.451,-2.89194,37.6928,-8.63157,-1.15006,3.37216,9.33799,3.32752,7.00595,-1.27456,39.2679,7,0,0,0
0,1405942172,845761,19.1816,32.8612,-2.6841,38.1444,-8.63149,-1.14369,3.36317,9.33389,1.02145,6.91674,-2.52403,39.3584,8,0,0,0
0,1405942173,846768,18.9791,32.6242,-2.92176,37.8561,-8.63391,-1.14348,3.37322,9.33973,1.09358,7.74061,-1.02556,39.3906,7,0,0,0
0,1405942174,847776,19.115,32.4935,-2.68894,37.7947,-8.62473,-1.15458,3.36197,9.32856,1.49104,6.76659,-1.26469,39.2843,7,0,0,0
0,1405942175,848781,19.4635,32.7696,-2.76666,38.2143,-8.62449,-1.16203,3.34059,9.32157,1.40996,6.64103,-0.351444,39.3808,8,0,0,0
0,1405942176,849783,19.3038,32.6372,-3.59217,38.0884,-8.63983,-1.15397,3.35404,9.33959,2.45074,7.71451,-2.45876,39.2981,7,0,0,0
0,1405942177,850785,18.5204,32.4015,-2.9319,37.436,-8.62516,-1.13198,3.35667,9.32426,1.30902,7.42983,-2.1485,39.3012,8,0,0,0
0,1405942178,851789,19.1617,32.6097,-2.68212,37.9177,-8.64477,-1.15044,3.38299,9.35415,1.49639,7.75857,-1.73465,39.3482,7,0,0,0
0,1405942179,852805,19.1883,32.4483,-2.99368,37.8159,-8.63734,-1.15635,3.39574,9.35264,2.44034,8.04926,-1.51505,39.3251,5,0,0,0
0,1405942180,853806,19.099,32.7232,-3.0636,38.0127,-8.61103,-1.14751,3.36954,9.31775,1.18813,7.8109,-1.42067,39.4031,7,0,0,0
0,1405942181,854811,19.0269,32.8447,-2.92112,38.0701,-8.60956,-1.13004,3.37485,9.31618,1.49995,6.74129,-1.88745,39.3296,8,0,0,0
0,1405942182,855813,19.3778,32.7186,-3.29328,38.1688,-8.64591,-1.13657,3.37246,9.34971,1.56066,8.21609,-0.425347,39.4012,8,0,0,0
0,1405942183,856819,18.8897,32.8433,-2.90274,37.9991,-8.63538,-1.1631,3.37931,9.34571,1.46358,7.57456,-1.51644,39.3902,6,0,0,0
0,1405942184,857828,19.1215,32.6576,-2.86006,37.9517,-8.63432,-1.16175,3.38445,9.34643,1.31347,6.75653,-1.84052,39.4498,8,0,0,0
0,1405942185,858836,19.0579,32.728,-3.0831,37.9977,-8.62316,-1.16502,3.38095,9.33526,1.64707,6.70641,-1.53318,39.4281,6,0,0,0
0,1405942186,859838,19.3718,32.6171,-2.96999,38.0521,-8.61941,-1.14318,3.38482,9.33049,1.28195,7.40536,-2.43188,39.3773,6,0,0,0
0,1405942187,860849,19.1674,33.0048,-2.99162,38.2839,-8.60839,-1.1486,3.37377,9.31697,-0.108946,7.00521,-2.25377,39.4479,6,0,0,0
0,1405942188,861857,19.0104,32.683,-3.10864,37.9373,-8.63753,-1.14836,3.37236,9.34337,1.78319,8.04215,-2.45443,39.3769,6,0,0,0
0,1405942189,862865,19.2338,32.3014,-3.17449,37.7279,-8.64001,-1.15939,3.35651,9.34131,1.94976,7.57568,-1.3992,39.5337,7,0,0,0
0,1405942190,863870,19.223,32.7739,-3.05208,38.1178,-8.6296,-1.15119,3.36783,9.33475,0.0235597,7.25238,-0.943216,39.4031,7,0,0,0
0,1405942191,864878,19.2612,32.3068,-2.99533,37.7319,-8.64163,-1.14252,3.35759,9.34112,1.06978,7.26285,-2.07725,39.4793,8,0,0,0
0,1405942192,865879,19.1294,32.9449,-3.03611,38.2167,-8.65176,-1.15188,3.34627,9.34758,1.36092,7.96999,-2.22357,39.4583,7,0,0,0
0,1405942193,866881,18.9861,32.8612,-3.13154,38.0806,-8.62624,-1.15943,3.36267,9.3308,2.19959,7.59729,-1.18791,39.4966,7,0,0,0
0,1405942194,867886,18.9761,32.7253,-2.77552,37.9307,-8.61035,-1.15456,3.36296,9.31561,0.761022,6.57533,-1.28457,39.4308,8,0,0,0
0,1405942195,868887,19.0168,32.844,-2.96891,38.0682,-8.63112,-1.15367,3.35568,9.33209,3.42458,6.23326,-2.02095,39.4761,8,0,0,0
0,1405942196,869891,19.11,32.669,-3.35728,37.9964,-8.62593,-1.15331,3.40707,9.34585,2.28441,7.58163,-2.24352,39.4616,7,0,0,0
0,1405942197,870892,19.316,32.858,-2.88943,38.2244,-8.64803,-1.13743,3.37842,9.35393,1.46965,7.13015,-1.03939,39.4933,7,0,0,0
0,1405942198,871900,19.0727,32.6975,-3.46819,38.0121,-8.63176,-1.15162,3.40691,9.35096,2.42381,6.68041,-1.5186,39.557,8,0,0,0
0,1405942199,872902,18.9515,32.5863,-2.82354,37.8021,-8.63677,-1.14074,3.40726,9.35438,0.93289,6.97875,-2.14566,39.5998,8,0,0,0
0,1405942200,873906,18.8303,32.6666,-2.79594,37.8088,-8.62936,-1.14626,3.35913,9.33078,1.21971,6.86507,-2.22653,39.4722,7,0,0,0
0,1405942201,874913,19.1185,32.855,-3.08488,38.1377,-8.6097,-1.17209,3.36836,9.31916,1.67396,5.71279,-1.18793,39.579,8,0,0,0
0,1405942202,875918,18.9999,32.8504,-2.96128,38.0646,-8.60189,-1.16128,3.39918,9.32178,1.68935,8.28256,-1.72109,39.494,8,0,0,0
0,1405942203,876926,19.1675,32.6739,-2.89212,37.9914,-8.62809,-1.12056,3.40487,9.34305,1.18639,7.42603,-0.821802,39.4661,8,0,0,0
0,1405942204,877931,19.1358,32.74,-2.86775,38.0304,-8.62137,-1.14993,3.3368,9.31582,0.763541,7.44289,-2.23746,39.4446,6,0,0,0
0,1405942205,878936,19.2045,32.5311,-2.82374,37.8822,-8.63268,-1.1459,3.35928,9.33387,0.561526,7.14216,-1.57129,39.5927,7,0,0,0
0,1405942206,879942,19.1365,32.466,-2.91703,37.7988,-8.63694,-1.12789,3.35763,9.33501,1.66316,6.98953,-2.40197,39.5337,8,0,0,0
0,1405942207,880946,18.8621,32.4839,-2.95886,37.6794,-8.62849,-1.13957,3.39171,9.34094,0.441757,6.84083,-1.64458,39.5256,8,0,0,0
0,1405942208,881951,18.9102,33.0319,-3.24398,38.1999,-8.63077,-1.12346,3.39186,9.34115,1.55349,7.26614,-2.10332,39.5335,7,0,0,0
0,1405942209,882955,19.0167,32.6212,-2.93464,37.8733,-8.61886,-1.16119,3.37402,9.3283,1.58847,7.54212,-2.60611,39.5804,7,0,0,0
0,1405942210,883956,19.0189,32.5958,-2.58482,37.8271,-8.63262,-1.15585,3.36808,9.3382,2.47917,7.74796,-2.53708,39.6276,6,0,0,0
0,1405942211,884963,18.6496,32.5823,-2.62952,37.6342,-8.6425,-1.17055,3.37063,9.35008,1.59317,6.92481,-1.59624,39.5652,8,0,0,0
0,1405942212,885969,18.6759,32.6107,-2.71115,37.6775,-8.64059,-1.17342,3.37634,9.35074,1.32764,7.61415,-1.62006,39.5709,4,0,0,0
0,1405942213,886972,19.2193,32.5475,-2.80159,37.9022,-8.61847,-1.14847,3.35473,9.3194,0.135465,7.10954,-1.80018,39.6838,8,0,0,0
0,1405942214,887979,19.2482,32.621,-3.06164,38,-8.62404,-1.14838,3.35641,9.32514,1.55856,6.16972,-2.00689,39.5351,7,0,0,0
0,1405942216,889357,19.1747,32.6276,-2.96421,37.9607,-8.62521,-1.14834,3.3579,9.32675,1.27561,6.35882,-1.78835,39.5616,6,0,0,0
0,1405942217,890366,18.6337,32.2011,-3.04832,37.3285,-8.67151,-1.21263,3.41071,9.39673,0.742848,7.55292,-1.67048,39.5894,8,0,0,0
0,1405942218,891368,19.2398,32.8148,-2.66387,38.1324,-8.62567,-1.14133,3.36728,9.3297,1.70854,6.94917,-1.73897,39.6079,7,0,0,0
0,1405942219,892373,19.0731,32.3445,-3.10894,37.6778,-8.64175,-1.14316,3.35288,9.33962,1.24469,7.43483,-1.50827,39.7011,7,0,0,0
0,1405942221,894257,18.8909,32.4068,-2.9294,37.6251,-8.6362,-1.15607,3.3461,9.33364,1.23615,6.96298,-2.78355,39.6875,2,0,0,0
0,1405942222,895261,19.1985,32.856,-2.6734,38.1477,-8.6284,-1.14338,3.36525,9.33175,1.58335,7.98997,-2.14609,39.6107,7,0,0,0
0,1405942223,896262,19.4112,32.9143,-2.71074,38.3079,-8.65158,-1.13138,3.35968,9.34973,1.03102,5.60837,-1.37579,39.6878,7,0,0,0
0,1405942224,897268,19.1658,32.6925,-2.95699,38.0115,-8.61928,-1.15248,3.36106,9.32293,0.0378378,8.13868,-1.57386,39.6036,8,0,0,0
0,1405942225,898271,18.8982,32.4505,-2.67996,37.6478,-8.61702,-1.15784,3.38905,9.33162,1.15248,7.73771,-1.72333,39.647,8,0,0,0
0,1405942226,899277,19.0038,32.808,-2.69893,38.0105,-8.63473,-1.13573,3.36037,9.33491,0.227864,8.79034,-1.03702,39.7378,8,0,0,0
0,1405942227,900283,19.1051,32.7253,-3.05295,38.0167,-8.64519,-1.13439,3.37301,9.34898,-0.449354,7.61808,-0.519878,39.7171,7,0,0,0
0,1405942228,901290,18.9952,32.897,-2.78508,38.0892,-8.62848,-1.13094,3.38214,9.33641,1.56094,6.77661,-1.51474,39.7227,8,0,0,0
0,1405942229,902294,19.1078,32.6706,-2.70084,37.9444,-8.62972,-1.15007,3.36747,9.33459,1.99669,7.72513,-1.52443,39.6761,8,0,0,0
0,1405942230,903299,19.1423,32.537,-2.59567,37.8394,-8.64306,-1.13696,3.35922,9.34235,2.66814,6.82348,-1.05626,39.7707,7,0,0,0
0,1405942231,904307,19.3226,32.992,-3.61351,38.4043,-8.62015,-1.13092,3.35732,9.31974,2.25138,7.65533,-1.47561,39.7438,8,0,0,0
0,1405942232,905311,19.0045,32.9825,-3.04931,38.1879,-8.64272,-1.12974,3.36092,9.34177,0.845314,7.78164,-1.74542,39.6742,7,0,0,0
0,1405942233,906317,19.0921,32.6626,-3.27155,37.9744,-8.63278,-1.16014,3.34691,9.33127,0.883355,7.55438,-2.02184,39.8096,8,0,0,0
0,1405942234,907322,19.1349,32.9046,-2.62309,38.1541,-8.62046,-1.13161,3.34058,9.3141,1.79603,6.59085,-2.38018,39.8158,6,0,0,0
0,1405942235,908332,19.1191,32.6855,-3.00558,37.9857,-8.62117,-1.14506,3.35662,9.32216,2.12396,7.63844,-1.70403,39.7362,8,0,0,0
0,1405942236,909336,19.1661,32.8069,-2.6983,38.0908,-8.61686,-1.16418,3.37938,9.32877,2.88605,7.20946,-1.92272,39.6549,8,0,0,0
0,1405942237,910338,19.1351,32.5374,-2.90396,37.8586,-8.64003,-1.13319,3.35937,9.33914,-1.02739,8.37148,-2.63012,39.7336,6,0,0,0
0,1405942238,911340,19.1417,32.7097,-3.08053,38.0239,-8.63942,-1.13346,3.38394,9.34748,1.31602,7.67493,-0.969027,39.8376,8,0,0,0
0,1405942239,912348,18.9888,32.6441,-3.12941,37.8946,-8.63292,-1.14041,3.3613,9.33414,2.93132,7.10684,-2.44896,39.8462,6,0,0,0
0,1405942240,913356,18.8664,32.7858,-2.79805,37.9299,-8.63663,-1.14795,3.3547,9.33613,2.67153,6.91734,-2.63619,39.7502,7,0,0,0
0,1405942241,914358,19.1443,32.5423,-2.79612,37.8592,-8.63669,-1.14731,3.37214,9.34238,1.1924,7.52207,-1.27441,39.8016,6,0,0,0
0,1405942242,915365,19.148,32.5066,-2.60125,37.8166,-8.647,-1.13853,3.36518,9.34833,2.03996,6.98593,-1.14041,39.8764,7,0,0,0
0,1405942243,916368,19.286,32.7422,-2.857,38.1073,-8.63917,-1.14605,3.3823,9.34819,2.51518,6.72473,-2.02794,39.8186,7,0,0,0
0,1405942244,917373,19.2441,32.5709,-2.86692,37.9397,-8.61234,-1.15874,3.35033,9.31342,1.84171,7.58657,-1.44984,39.8293,7,0,0,0
0,1405942245,918376,19.3303,32.7864,-2.85013,38.1671,-8.63286,-1.16759,3.36226,9.33779,1.37522,7.63306,-2.03746,39.7847,6,0,0,0
0,1405942246,919382,19.0678,33.0828,-2.72017,38.2812,-8.63649,-1.13505,3.36582,9.33842,0.598316,7.35405,-1.21707,39.7083,6,0,0,0
0,1405942247,920394,19.3879,32.6084,-3.01829,38.0567,-8.62573,-1.16779,3.36834,9.33342,1.7006,7.80646,-0.990423,39.89,7,0,0,0
0,1405942248,921397,19.2183,32.7391,-2.93575,38.0763,-8.63977,-1.15197,3.36801,9.34431,0.944882,7.4525,-2.222,39.8324,8,0,0,0
0,1405942249,922406,19.1868,32.6032,-3.12051,37.9584,-8.63721,-1.12077,3.37023,9.33895,1.5702,5.77626,-1.66416,39.8937,8,0,0,0
0,1405942250,923411,19.1127,32.4153,-2.93664,37.7448,-8.62706,-1.13521,3.36232,9.32845,0.446704,8.21397,-1.30505,39.8454,8,0,0,0
0,1405942251,924416,19.235,32.6953,-2.94959,38.0482,-8.61912,-1.17176,3.41458,9.34461,1.3778,6.66215,-1.42473,39.8837,7,0,0,0
0,1405942252,925421,19.1335,32.8718,-2.4856,38.1159,-8.63855,-1.14228,3.35235,9.33636,0.488109,7.31665,-2.34888,39.8454,8,0,0,0
0,1405942253,926425,19.2527,32.731,-2.76234,38.0738,-8.61598,-1.16149,3.3543,9.31855,0.922621,7.95377,-4.0733,39.8508,7,0,0,0
0,1405942254,927431,19.0743,32.7606,-3.03856,38.0306,-8.62782,-1.17793,3.37387,9.33862,1.53387,7.7466,-1.60105,39.8509,8,0,0,0
0,1405942255,928438,19.1037,32.6852,-2.88733,37.9686,-8.62671,-1.15357,3.38743,9.33947,1.0132,7.57526,-2.18105,39.8247,7,0,0,0
0,1405942256,929439,18.8934,32.3833,-2.95084,37.6078,-8.63223,-1.12644,3.41473,9.35118,1.61514,8.05149,-1.57007,39.8319,7,0,0,0
0,1405942257,930447,19.2773,33.0296,-3.25256,38.3816,-8.63204,-1.15835,3.38733,9.34494,1.63969,7.88433,-2.59036,39.8097,8,0,0,0
0,1405942258,931455,19.3251,32.42,-2.7197,37.8406,-8.63598,-1.13631,3.37033,9.33972,1.8026,7.52826,-2.21208,39.8993,7,0,0,0
0,1405942259,932458,19.2178,32.6191,-3.03015,37.9804,-8.61129,-1.13416,3.34083,9.30601,1.9705,7.76567,-2.01323,39.9741,8,0,0,0
0,1405942260,933459,18.7681,32.4769,-3.05155,37.6338,-8.6387,-1.1565,3.37902,9.34785,0.630982,7.78844,-2.83522,39.8333,8,0,0,0
0,1405942261,934464,19.3529,32.7034,-2.81294,38.1046,-8.62673,-1.1361,3.37896,9.33427,0.967144,8.31898,-0.902162,39.8522,8,0,0,0
0,1405942262,935472,19.1906,32.6724,-3.04356,38.0136,-8.63693,-1.15681,3.31687,9.32397,1.45339,6.9051,-2.47187,39.9404,7,0,0,0
0,1405942263,936482,19.1356,32.8273,-2.76987,38.0983,-8.62423,-1.1724,3.36546,9.33157,0.946793,7.00506,-2.36776,39.9066,8,0,0,0
0,1405942264,937485,19.3471,32.5422,-2.86895,37.9676,-8.63939,-1.16339,3.3693,9.34584,1.24586,6.26019,-0.365724,39.884,7,0,0,0
0,1405942265,938488,19.0784,32.8676,-3.26066,38.1431,-8.65331,-1.1425,3.36856,9.35586,2.52588,7.22948,-0.528548,39.9539,8,0,0,0
0,1405942266,939491,19.3222,32.7457,-2.68504,38.1161,-8.6529,-1.14841,3.34488,9.34772,2.03824,7.97283,-1.21357,39.9297,7,0,0,0
0,1405942267,940493,19.0013,32.6902,-2.96633,37.9276,-8.64706,-1.15031,3.3483,9.34376,1.55943,6.6689,-1.25694,39.9195,7,0,0,0
0,1405942268,941496,19.1038,32.8206,-3.08962,38.1011,-8.60391,-1.1537,3.34927,9.30462,1.28391,6.49278,-1.54217,39.9512,8,0,0,0
0,1405942269,942503,19.2243,32.68,-2.85064,38.0221,-8.62022,-1.13719,3.36458,9.32319,1.13531,7.86058,-1.05628,39.9377,8,0,0,0
0,1405942270,943504,19.2069,32.6552,-3.00653,38.004,-8.63978,-1.16707,3.38083,9.35083,0.967302,7.68592,-3.09881,39.9853,7,0,0,0
0,1405942271,944507,19.289,32.5222,-2.53396,37.897,-8.61209,-1.15216,3.33606,9.30725,2.08126,7.99209,-0.629656,39.9508,7,0,0,0
0,1405942272,945513,19.1731,32.6965,-2.76102,38.0039,-8.62044,-1.14387,3.37044,9.32632,0.374247,7.48913,-1.50775,40.0345,8,0,0,0
0,1405942273,946515,19.3651,32.6769,-2.77383,38.0851,-8.61848,-1.1484,3.33544,9.31247,2.79235,7.95015,-2.63078,39.8953,8,0,0,0
0,1405942274,947523,18.8858,32.4233,-2.8091,37.6276,-8.6369,-1.14267,3.37359,9.34253,1.88112,7.55784,-1.61943,39.9524,7,0,0,0
0,1405942275,948525,19.3677,32.5839,-2.82226,38.0103,-8.62547,-1.15249,3.39196,9.33983,1.17008,8.28528,-0.543413,40.0746,8,0,0,0
0,1405942276,949530,19.0764,32.5339,-2.91125,37.8264,-8.62946,-1.12745,3.34581,9.3238,0.816181,7.73601,-1.42373,39.9729,8,0,0,0
0,1405942277,950546,19.1259,33.0244,-3.02105,38.2824,-8.65049,-1.15184,3.36862,9.35443,1.78844,7.81819,-2.07254,39.9813,8,0,0,0
0,1405942278,951551,18.9216,32.6946,-3.06444,37.8993,-8.64447,-1.14826,3.36809,9.34823,1.58895,7.89317,-1.86596,39.8901,7,0,0,0
0,1405942279,952557,19.0961,32.7156,-3.2694,38.0219,-8.64784,-1.14087,3.39685,9.36084,1.51889,6.70773,-2.4615,40.031,8,0,0,0
0,1405942280,953564,19.0562,32.4637,-2.70587,37.7406,-8.61772,-1.13466,3.36901,9.32217,1.54111,7.06288,-0.44293,40.0082,8,0,0,0
0,1405942281,954570,19.2466,32.5834,-2.59502,37.9321,-8.6366,-1.13455,3.38712,9.34616,1.17543,8.40538,-2.04251,40.0312,8,0,0,0
0,1405942282,955577,19.0201,32.3185,-2.9968,37.6196,-8.64242,-1.15082,3.40324,9.35938,1.60715,7.42263,-1.5537,40.1035,7,0,0,0
0,1405942283,956579,19.1172,32.6867,-2.86501,37.9749,-8.63489,-1.16533,3.3683,9.34156,2.02717,6.73619,-0.625006,40.0139,8,0,0,0
0,1405942284,957586,19.1953,32.7013,-2.98714,38.0362,-8.6283,-1.15339,3.38955,9.34168,-0.255076,8.07016,-2.29643,40.1213,7,0,0,0
0,1405942285,958592,19.0609,32.7306,-3.22818,38.0135,-8.62433,-1.13732,3.35763,9.32449,1.29369,6.53447,-1.18115,39.9706,7,0,0,0
0,1405942286,959595,19.3189,32.7148,-3.23018,38.1302,-8.62088,-1.16492,3.36112,9.32598,1.40088,8.73579,-0.955529,39.9986,7,0,0,0
0,1405942287,960598,19.0546,32.7077,-3.21865,37.9899,-8.62919,-1.15032,3.37931,9.33841,0.9271,6.72608,-1.27015,40.0503,7,0,0,0
0,1405942288,961605,18.9951,32.6303,-2.85142,37.864,-8.64282,-1.15798,3.36468,9.34667,1.45021,7.84093,-2.02445,40.1002,8,0,0,0
0,1405942289,962617,19.0155,32.6292,-2.86212,37.8741,-8.62079,-1.13898,3.34446,9.31669,2.02819,7.10937,-2.85429,40.0175,8,0,0,0
0,1405942290,963622,19.1774,32.7999,-3.31102,38.1388,-8.62779,-1.1657,3.36684,9.33452,1.14108,7.75384,-1.52263,40.0872,7,0,0,0
0,1405942291,964630,19.3059,32.6478,-2.70507,38.0252,-8.61467,-1.15295,3.3652,9.32022,2.84296,7.24014,-2.02457,40.0534,6,0,0,0
0,1405942292,965633,19.3861,32.8216,-3.07422,38.2431,-8.62899,-1.15918,3.36818,9.3353,-0.212973,6.57141,-2.6865,40.1733,6,0,0,0
0,1405942293,966640,19.134,32.639,-3.02817,37.955,-8.62785,-1.14829,3.36085,9.33026,2.85722,6.9653,-1.35386,40.0433,7,0,0,0
0,1405942294,967645,19.2062,32.5491,-3.09488,37.9197,-8.62595,-1.13407,3.39712,9.3399,2.05118,8.21324,-2.25089,40.1289,7,0,0,0
0,1405942295,968650,19.4206,32.4672,-2.57578,37.9198,-8.64173,-1.13721,3.37843,9.34808,1.03435,6.48314,-1.65968,40.0577,8,0,0,0
0,1405942296,969655,19.1906,32.8658,-3.23929,38.196,-8.61694,-1.16594,3.3599,9.32202,0.718463,7.1934,-1.66943,40.1651,7,0,0,0
0,1405942297,970658,19.0595,32.9224,-2.99073,38.1588,-8.62486,-1.14311,3.35,9.32295,1.23644,8.55264,-1.3474,40.0708,7,0,0,0
0,1405942298,971664,19.4202,32.7391,-3.1625,38.1968,-8.64714,-1.14205,3.37284,9.35165,2.67941,7.61594,-0.816309,40.1559,7,0,0,0
0,1405942299,972667,18.9202,32.8272,-2.76429,37.99,-8.61352,-1.14383,3.34661,9.31133,1.32244,7.17276,-1.8333,40.1165,8,0,0,0
0,1405942300,973674,19.1244,32.6902,-2.78308,37.9755,-8.62796,-1.14038,3.36981,9.33262,2.17736,7.42718,-1.88305,40.1719,8,0,0,0
0,1405942301,974675,19.2094,32.852,-3.2316,38.193,-8.61717,-1.13006,3.37628,9.32373,2.61575,7.2995,0.00701203,40.1854,8,0,0,0
0,1405942302,975677,19.0417,32.8328,-3.02317,38.0752,-8.62197,-1.16575,3.3476,9.32222,1.61876,7.15134,-2.02025,40.2525,7,0,0,0
0,1405942303,976681,18.9681,32.7674,-2.85908,37.9693,-8.61225,-1.15678,3.34226,9.31019,0.664467,8.67438,-1.44892,40.1494,7,0,0,0
0,1405942304,977688,19.2216,32.8645,-3.06719,38.1962,-8.63051,-1.16421,3.34017,9.32726,2.14077,7.72282,-1.74663,40.0825,8,0,0,0
0,1405942305,978691,18.9248,32.6243,-3.04935,37.839,-8.63138,-1.16064,3.375,9.34015,-0.164562,7.91696,-1.92551,40.153,7,0,0,0
0,1405942306,979693,19.1898,32.5983,-3.11641,37.9554,-8.62618,-1.16299,3.36891,9.33344,0.165956,7.78955,-2.40481,40.2508,8,0,0,0
0,1405942307,980699,19.5049,32.5537,-3.29895,38.0929,-8.61624,-1.15376,3.36414,9.32139,1.15804,7.73779,-1.81269,40.1442,7,0,0,0
0,1405942308,981708,19.2604,32.6698,-2.83272,38.0303,-8.63591,-1.13831,3.33611,9.32761,1.49205,8.27636,-2.39513,40.2128,8,0,0,0
0,1405942309,982714,19.2861,32.7558,-2.87356,38.1202,-8.63543,-1.15347,3.35949,9.33742,0.343563,6.97052,-1.22989,40.2432,6,0,0,0
0,1405942310,983726,19.2565,32.5577,-2.89308,37.9366,-8.63351,-1.17743,3.38585,9.34814,1.38112,6.33011,-2.29252,40.2029,8,0,0,0
0,1405942311,984734,18.9601,32.8191,-3.03717,38.0237,-8.63056,-1.15744,3.36954,9.33702,1.46165,6.82684,-1.00012,40.2615,8,0,0,0
0,1405942312,985736,19.2397,32.4592,-2.95256,37.8481,-8.63975,-1.16587,3.36351,9.3444,2.03816,8.35423,-0.626003,40.2449,7,0,0,0
0,1405942313,986743,19.034,32.4612,-2.7291,37.7289,-8.61762,-1.14767,3.34795,9.31608,0.758226,7.82868,-2.5249,40.3504,6,0,0,0
0,1405942314,987744,19.1833,32.7899,-3.05757,38.112,-8.62619,-1.14369,3.36287,9.32889,0.866331,7.76596,-2.23855,40.1892,7,0,0,0
