0,1406071574,utime,,bx(uT),by(uT),bz(uT),,B(uT),ax,,,,ay,,az,,,,,A,,,,,gx,,,gy,,,,gz,,,T(C),rate,,track,tilt,roll
0,1406071574,mins,,-1000,-1000,-1000,,,,,0,,,,-2000,-2000,-2000,,0,,,-2000,,-2000,-2000,-2000,,0,,0,,-180,-180
0,1406071574,maxs,,,1000,,1000,,1000,,,,1000,,,2000,,2000,,2000,2000,,2000,,,2000,,2000,,2000,,37000,360,180,180
0,1406071574,attr,,,,,F,,,,,F,,,,,F,,,,,,F,,,,,,F,,,,,F,,,,F,,,,,F,,,,,F,,,,,,F,,,,,F,,,,,F,,,,,I,F,F,F
0,1406071574,1944,2.53823,6.02446,0.550459,6.56047,-1.42531,0,0.574084,1.53658,0.417391,0.255072,-0.927536,6.87778,0,0,0,0
0,1406071575,2948,15.8495,36.104,2.75963,39.5262,-8.71327,-0.123137,3.43665,9.36733,2.40609,1.1551,-1.68186,68.4055,12,0,0,0
0,1406071576,3950,15.6541,36.6063,3.10663,39.934,-8.70113,-0.113903,3.41424,9.34771,2.12466,1.67841,-2.14067,68.3102,11,0,0,0
0,1406071577,4955,15.374,36.6631,2.06622,39.8097,-8.71019,-0.130177,3.38725,9.34654,1.96206,2.38805,-0.734591,68.3748,7,0,0,0
0,1406071578,5958,15.2862,36.6008,2.01704,39.716,-8.68943,-0.10842,3.42073,9.33913,2.42897,1.91521,-1.0491,68.3111,11,0,0,0
0,1406071579,6963,11.1366,35.5965,-0.345383,37.2996,-8.70612,-0.132028,3.38052,9.34033,2.30316,2.01741,-1.69109,68.3539,12,0,0,0
0,1406071580,7970,11.8974,36.2276,-0.226151,38.1319,-8.72419,-0.140893,3.41468,9.36971,2.51328,2.1894,-1.65427,68.2871,8,0,0,0
0,1406071581,8972,11.5443,36.059,-0.114916,37.8621,-8.72321,-0.10505,3.39803,9.36227,2.33654,3.66193,-0.787909,68.307,8,0,0,0
0,1406071582,9978,11.8322,36.2225,0.358278,38.1077,-8.6932,-0.111809,3.43887,9.34934,2.56236,1.61004,-1.16731,68.3782,7,0,0,0
0,1406071583,10986,12.0422,35.6009,0.36605,37.5842,-8.71464,-0.0983262,3.42184,9.36288,1.59558,2.98751,-1.63137,68.4933,8,0,0,0
0,1406071584,11992,11.5621,35.8143,0.244758,37.6352,-8.71525,-0.0683861,3.41636,9.36118,1.94413,1.97058,-1.60313,68.4611,7,0,0,0
0,1406071585,12996,11.5525,35.6351,0.385452,37.4629,-8.72568,-0.0987315,3.43137,9.37665,1.77425,2.57159,-1.55446,68.5038,8,0,0,0
0,1406071586,13999,11.2577,35.9591,0.642212,37.6856,-8.70868,-0.156844,3.42678,9.35994,1.48971,1.85652,-1.15013,68.5284,7,0,0,0
0,1406071588,15004,11.5095,36.3482,0.389351,38.1289,-8.69645,-0.0896455,3.40047,9.33806,1.57524,2.45527,-0.636734,68.5418,8,0,0,0
0,1406071589,16008,11.7804,35.6342,0.704375,37.5376,-8.69019,-0.135952,3.44649,9.34966,1.51208,2.96413,-1.5898,68.5381,7,0,0,0
0,1406071590,17014,11.8109,35.6184,0.430977,37.528,-8.70538,-0.137111,3.36903,9.33557,3.03918,2.05479,-2.20057,68.5392,7,0,0,0
0,1406071591,18015,11.4925,35.6845,0.081547,37.4896,-8.69779,-0.168742,3.46095,9.3626,3.191,2.00597,-1.02569,68.5241,8,0,0,0
0,1406071592,19019,11.4859,35.9483,0.188923,37.7392,-8.69335,-0.118803,3.4147,9.34069,1.8854,4.35642,-0.710498,68.6312,7,0,0,0
0,1406071593,20024,11.6458,36.0863,1.56624,37.9513,-8.72345,-0.109066,3.44676,9.38033,3.15859,3.39769,-1.64382,68.6137,8,0,0,0
0,1406071594,21030,11.7931,36.2928,1.3998,38.1865,-8.71578,-0.0899331,3.44826,9.37355,2.90113,2.62028,-1.24733,68.5954,7,0,0,0
0,1406071595,22035,11.6845,36.0862,1.66412,37.9673,-8.696,-0.0452193,3.48425,9.36816,1.85232,1.67394,-1.95534,68.5752,9,0,0,0
0,1406071596,23042,12.0797,36.7996,3.05063,38.8515,-8.72216,-0.102212,3.42495,9.37107,1.52827,2.36034,-1.53512,68.6885,7,0,0,0
0,1406071597,24045,11.9072,37.2492,2.54553,39.1888,-8.71768,-0.115859,3.48474,9.38907,2.04916,2.72784,-1.96237,68.6937,8,0,0,0
0,1406071598,25046,11.8987,36.7555,3.012,38.7507,-8.69662,-0.0839178,3.46465,9.36173,3.07177,2.35884,-1.58035,68.6608,8,0,0,0
0,1406071599,26049,12.0193,37.0322,2.96873,39.0469,-8.71732,-0.138007,3.43352,9.37015,3.59286,2.45033,-0.24823,68.58,7,0,0,0
0,1406071600,27051,11.8224,36.8033,2.91496,38.7653,-8.68011,-0.128421,3.5869,9.3929,2.49936,2.87062,-2.78837,68.7599,8,0,0,0
0,1406071601,28052,11.5169,37.0108,2.47492,38.8403,-8.69568,-0.137056,3.48682,9.36971,2.35774,2.63118,-0.477603,68.6332,7,0,0,0
0,1406071602,29060,12.3523,36.925,2.4305,39.0121,-8.72764,-0.0827159,3.39468,9.36495,2.16026,2.16276,-0.810656,68.5349,7,0,0,0
0,1406071603,30063,12.4321,36.8717,2.06078,38.9657,-8.71606,-0.223338,3.44031,9.37312,1.10948,2.9511,-1.94254,68.4762,8,0,0,0
0,1406071604,31074,12.5113,37.0377,2.29068,39.1609,-8.70397,-0.188975,3.40677,9.34884,3.1329,2.5292,-2.19185,68.6827,8,0,0,0
0,1406071605,32083,12.7948,36.8019,2.32698,39.0321,-8.70152,-0.122267,3.46106,9.36538,1.38973,1.56058,-2.51931,68.5725,8,0,0,0
0,1406071606,33827,12.5383,36.7988,2.2446,38.9409,-8.63284,0.0133783,3.5033,9.31661,2.03522,2.49798,-2.85405,68.6997,1,0,0,0
0,1406071607,34830,12.3907,36.2482,2.34369,38.3791,-8.62037,-0.0772476,3.50389,9.30559,1.92669,1.62086,-0.122213,68.7201,7,0,0,0
0,1406071608,35836,12.6659,36.6351,2.64284,38.8528,-8.70024,-0.10964,3.40178,9.34228,2.24542,2.64138,-1.33884,68.7536,8,0,0,0
0,1406071609,36842,12.397,36.2767,2.75961,38.4356,-8.69883,-0.117782,3.41899,9.34735,2.97262,2.05667,-0.820545,68.6378,6,0,0,0
0,1406071611,38068,12.3446,36.3885,2.87607,38.5329,-8.7012,-0.101644,3.46072,9.36471,1.06095,1.95926,-0.87593,68.6856,3,0,0,0
0,1406071612,39076,12.6608,36.4848,2.4033,38.6938,-8.72322,-0.0920835,3.46209,9.38557,2.3539,1.49112,-1.20619,68.753,6,0,0,0
0,1406071613,40082,12.6796,36.577,2.43082,38.7886,-8.71873,-0.143513,3.4424,9.37481,-0.118161,3.12071,-1.94384,68.8526,7,0,0,0
0,1406071614,41085,12.4276,36.8856,2.33184,38.9927,-8.7159,-0.110892,3.40992,9.35985,2.95374,2.56236,-1.3298,68.7407,7,0,0,0
0,1406071615,42086,12.9234,36.9235,2.72391,39.2145,-8.70767,-0.105795,3.41556,9.35419,1.14662,2.50969,-1.4598,68.7321,9,0,0,0
0,1406071616,43094,12.5729,36.6756,2.35332,38.8422,-8.73103,-0.125112,3.40271,9.3715,2.95576,2.07198,-1.4683,68.7532,7,0,0,0
0,1406071617,44101,12.8725,36.5769,2.28482,38.8432,-8.70791,-0.135689,3.40081,9.34942,1.11637,2.50454,-0.596881,68.7912,7,0,0,0
0,1406071618,45102,12.7329,36.6106,2.35588,38.8332,-8.7264,-0.0840799,3.47081,9.39168,2.73994,3.12497,-0.422331,68.7567,8,0,0,0
0,1406071619,46105,12.5691,36.9548,2.58358,39.1192,-8.70546,-0.0984394,3.41864,9.35317,3.32429,3.00844,-0.760259,68.749,8,0,0,0
0,1406071620,47109,12.8059,36.6245,2.24045,38.8634,-8.70119,-0.0927063,3.38916,9.3384,2.88905,2.77337,-2.18319,68.7311,8,0,0,0
0,1406071621,48112,12.5902,36.9138,2.55414,39.0854,-8.73347,-0.106353,3.42199,9.38055,2.58594,2.3912,-0.44166,68.7987,7,0,0,0
0,1406071622,49120,12.8804,36.6773,2.4189,38.9484,-8.71718,-0.100611,3.39798,9.35658,2.87097,1.75221,-2.12198,68.7293,7,0,0,0
0,1406071623,50128,12.7973,36.563,2.30515,38.8064,-8.69196,-0.126919,3.41955,9.34129,1.93162,1.87666,-1.98053,68.6524,8,0,0,0
0,1406071624,51135,12.7374,36.7477,2.45507,38.97,-8.72204,-0.102467,3.4183,9.36852,2.06853,2.26205,-1.88773,68.6004,8,0,0,0
0,1406071625,52137,12.5433,36.6295,2.43186,38.7939,-8.70992,-0.122542,3.38834,9.34659,2.04698,2.47547,-1.81089,68.5501,7,0,0,0
0,1406071626,53143,12.947,35.9296,2.10773,38.2493,-8.70733,-0.114015,3.44066,9.36316,2.2748,1.92985,-1.55548,68.4999,7,0,0,0
0,1406071627,54148,12.4625,36.8514,2.56943,38.9865,-8.72761,-0.115448,3.43045,9.3783,2.48314,1.64266,-2.13982,68.3934,8,0,0,0
0,1406071628,55152,12.6476,37.0043,2.25397,39.171,-8.70233,-0.114341,3.43988,9.35822,2.33878,2.5492,-1.25037,68.3647,8,0,0,0
0,1406071629,56153,13.0075,36.7773,2.52587,39.0915,-8.719,-0.17971,3.43564,9.3732,1.99029,1.77995,-1.33206,68.2908,8,0,0,0
0,1406071630,57158,12.5482,36.8665,2.47039,39.0218,-8.71674,-0.0678943,3.41947,9.36371,1.64369,2.21243,-1.91376,68.4435,8,0,0,0
0,1406071631,58166,12.7426,36.6972,2.37665,38.9192,-8.71132,-0.116644,3.44635,9.36899,2.96879,2.54977,-1.45369,68.2743,7,0,0,0
0,1406071632,59171,12.5564,37.41,2.51079,39.5408,-8.72337,0.00783087,3.43461,9.37517,2.97716,2.89491,-0.562398,68.4908,7,0,0,0
0,1406071633,60185,12.7449,37.11,2.33266,39.3068,-8.7272,-0.182461,3.44234,9.38334,2.08284,1.85971,-1.98133,68.3745,8,0,0,0
0,1406071634,61194,12.2514,36.502,2.18463,38.5651,-8.69043,-0.144004,3.42323,9.34145,2.60756,3.2232,-1.23289,68.4406,8,0,0,0
0,1406071635,62201,12.6633,37.1123,2.36396,39.2845,-8.71684,-0.0876585,3.40002,9.35687,2.28538,3.25075,-1.26086,68.2645,8,0,0,0
0,1406071636,63202,12.6211,36.6571,2.55567,38.8531,-8.72417,-0.114483,3.41236,9.36848,2.3937,1.28114,-2.47981,68.2385,7,0,0,0
0,1406071637,64209,12.898,37.054,2.36634,39.306,-8.71418,-0.121155,3.41156,9.35897,1.81423,2.39661,-2.10411,68.2308,7,0,0,0
0,1406071638,65221,12.4374,36.9591,2.46019,39.0732,-8.7022,-0.136583,3.3926,9.34113,2.61721,2.68792,-0.99382,68.235,8,0,0,0
0,1406071639,66223,12.7455,36.7528,2.80823,39.0013,-8.74318,-0.127421,3.46289,9.40484,2.33299,2.2007,-1.78395,68.2323,8,0,0,0
0,1406071640,67230,12.2139,36.7467,2.44798,38.8007,-8.7032,-0.0907723,3.42397,9.35294,2.99168,2.62354,-1.2934,68.2958,7,0,0,0
0,1406071642,69083,12.3903,36.6362,2.68603,38.7679,-8.70851,-0.160573,3.45226,9.36921,2.09689,3.33539,-2.63017,68.3532,6,0,0,0
0,1406071643,70090,12.7656,36.6917,2.36795,38.921,-8.71698,-0.117024,3.46592,9.38147,2.82708,2.27784,-0.753976,68.3939,8,0,0,0
0,1406071644,71097,12.454,36.8497,2.65596,38.9879,-8.71796,-0.131799,3.44034,9.37316,3.23124,2.12381,-1.24769,68.3879,8,0,0,0
0,1406071645,72102,12.5801,36.9526,2.26688,39.1011,-8.6965,-0.14149,3.41231,9.34307,2.34651,3.91715,-1.40311,68.357,8,0,0,0
0,1406071646,73107,12.4889,36.568,2.33938,38.7126,-8.71073,-0.121556,3.43521,9.36441,1.89547,1.29913,-1.85052,68.4792,7,0,0,0
0,1406071647,74115,12.365,36.8885,2.80589,39.0067,-8.72371,-0.109991,3.41384,9.36853,1.75728,2.44674,-1.4543,68.594,8,0,0,0
0,1406071648,75119,12.6752,37.1804,2.47818,39.3597,-8.709,-0.128506,3.43781,9.36385,3.5368,1.69718,-0.94216,68.5906,7,0,0,0
0,1406071649,76127,12.5745,36.8085,2.32401,38.9665,-8.70636,-0.119762,3.44583,9.36423,1.12541,2.66897,-1.60401,68.534,7,0,0,0
0,1406071650,77130,12.4491,36.9773,2.30285,39.0845,-8.70295,-0.128628,3.42519,9.3536,2.03101,2.32549,-1.31329,68.685,7,0,0,0
0,1406071651,78132,12.6413,37.3264,2.14994,39.4675,-8.7107,-0.127961,3.43273,9.36356,2.22507,3.62149,-2.11615,68.7256,6,0,0,0
0,1406071652,79139,12.7368,36.4748,2.36436,38.7069,-8.69649,-0.111078,3.446,9.35501,3.18094,3.45227,-1.78557,68.775,7,0,0,0
0,1406071653,80148,12.4525,36.7307,2.47669,38.8632,-8.72513,-0.114435,3.43896,9.3791,2.5427,2.14478,-1.06089,68.7242,7,0,0,0
0,1406071654,81150,12.9646,36.6154,2.6576,38.9337,-8.71676,-0.111821,3.41841,9.36376,0.957203,2.66365,-1.9117,68.7531,8,0,0,0
0,1406071655,82154,12.3608,37.006,2.50987,39.0964,-8.71321,-0.116522,3.42359,9.3624,2.38559,1.491,0.0512278,68.662,8,0,0,0
0,1406071656,83155,12.6639,37.2973,2.25216,39.4529,-8.68809,-0.16747,3.40177,9.33182,3.94809,2.90141,-1.03074,68.6304,8,0,0,0
0,1406071657,84159,12.8693,36.8441,2.93693,39.1374,-8.71135,-0.124074,3.3769,9.3438,2.52375,2.37014,-0.729903,68.6402,8,0,0,0
0,1406071658,85161,12.4999,36.8644,2.22332,38.9894,-8.75604,-0.130936,3.48271,9.42415,2.86739,3.06248,-1.89621,68.7193,8,0,0,0
0,1406071659,86163,12.7126,36.6236,2.32588,38.8369,-8.69245,-0.167441,3.46318,9.35844,2.32796,2.8565,-1.924,68.6003,8,0,0,0
0,1406071660,87168,12.707,36.4437,2.45605,38.6735,-8.67985,-0.282818,3.40838,9.32935,1.32512,2.24654,-1.08319,68.5683,7,0,0,0
0,1406071661,88169,12.6025,36.6885,2.62273,38.8812,-8.77713,-0.326933,3.3877,9.4139,2.77684,3.48254,-0.891618,68.578,8,0,0,0
0,1406071662,89170,12.5849,36.8321,2.28899,38.9901,-8.72121,-0.110335,3.40308,9.3623,0.902949,3.23326,-2.18021,68.7442,9,0,0,0
0,1406071663,90171,12.9695,36.9456,2.27854,39.2222,-8.71152,-0.0732322,3.43986,9.36635,2.79049,2.78404,-1.79675,68.5355,8,0,0,0
0,1406071664,91177,12.5704,36.8971,2.33865,39.0497,-8.69866,-0.0835156,3.43463,9.35255,1.44483,2.50935,-1.56375,68.5983,8,0,0,0
0,1406071665,92185,12.7207,36.5588,2.36884,38.7811,-8.68443,-0.225856,3.41562,9.33471,2.09105,2.81071,-0.304625,68.5405,7,0,0,0
0,1406071666,93191,12.8431,36.6988,2.49578,38.9612,-8.73784,-0.124275,3.40437,9.37843,4.24365,1.97763,-0.760335,68.6445,8,0,0,0
0,1406071667,94197,12.0054,36.6672,2.35855,38.6546,-8.71495,-0.145749,3.43635,9.36911,1.86006,2.83932,-1.4141,68.7393,8,0,0,0
0,1406071668,95198,12.5206,37.0028,2.43563,39.1396,-8.70588,-0.296638,3.44101,9.36594,2.21145,3.59369,-1.50922,68.7817,7,0,0,0
0,1406071669,96200,12.6561,36.7169,2.62935,38.9259,-8.56895,0.000266846,3.39399,9.21662,1.61329,1.70808,-1.94466,68.692,7,0,0,0
0,1406071670,97204,12.7721,36.7518,2.33258,38.9777,-8.84508,-0.327729,3.41534,9.48722,2.08205,2.51525,-1.25118,68.7146,7,0,0,0
0,1406071671,98216,12.546,36.6868,2.126,38.831,-8.53733,-0.135895,3.20682,9.12076,2.16143,1.82448,-2.80224,68.619,8,0,0,0
0,1406071672,99223,12.6964,36.9478,2.37342,39.1404,-8.68652,-0.162038,3.5072,9.36922,1.46575,1.33026,-1.20495,68.4968,8,0,0,0
0,1406071673,100231,12.7476,37.1607,2.31741,39.3547,-8.70883,-0.035493,3.44858,9.36684,0.729925,2.90096,-1.56502,68.4742,8,0,0,0
0,1406071674,101239,12.5777,37.3086,2.54644,39.4539,-8.67228,-0.173341,3.43424,9.32912,2.23883,4.23625,-1.25288,68.5241,7,0,0,0
0,1406071675,102245,12.9784,36.7216,2.41935,39.0227,-8.69246,-0.0849391,3.44959,9.35231,2.28902,2.49496,-0.637599,68.4097,7,0,0,0
0,1406071676,103247,13.0303,36.8085,2.30377,39.1147,-8.73234,-0.101415,3.37328,9.36179,2.12914,2.14732,-1.45252,68.5917,7,0,0,0
0,1406071677,104254,12.7996,37.0327,2.52089,39.2633,-8.64544,-0.0979062,3.50673,9.33008,2.76167,3.44999,-1.55591,68.7343,7,0,0,0
0,1406071678,105261,12.4633,36.95,2.72918,39.0907,-8.70915,-0.126761,3.39443,9.34813,0.918291,2.58343,-0.887377,68.6019,8,0,0,0
0,1406071679,106263,13.1873,37.0582,2.33435,39.4039,-8.72292,-0.0717226,3.41355,9.36733,2.34232,1.69607,-0.739082,68.5947,8,0,0,0
0,1406071680,107265,12.6348,37.1487,2.21907,39.3013,-8.68496,-0.123238,3.41568,9.33331,1.21948,2.60026,-1.94092,68.8324,7,0,0,0
0,1406071681,108279,13.0369,36.6185,2.37689,38.9426,-8.73655,-0.151973,3.21443,9.31037,2.87679,1.53937,-1.60303,68.5697,9,0,0,0
0,1406071682,109284,12.532,37.0853,2.7723,39.2435,-8.76967,-0.0611512,3.34171,9.38498,2.93908,2.37522,-0.965414,68.6005,7,0,0,0
0,1406071683,110291,12.6679,36.9914,2.08882,39.1561,-8.70765,-0.12374,3.40701,9.35127,1.3417,2.00093,-1.47442,68.5843,8,0,0,0
0,1406071684,111303,12.7236,36.5958,2.75535,38.8424,-8.70626,-0.137239,3.46664,9.37205,3.22956,2.2689,-0.383279,68.5443,8,0,0,0
0,1406071685,112309,12.492,37.0838,2.28379,39.1979,-8.68077,-0.108579,3.52198,9.36867,3.67909,1.81799,-1.86428,68.5328,7,0,0,0
0,1406071686,113314,12.8531,37.0501,2.33888,39.2859,-8.63452,-0.040649,3.49853,9.31646,2.44602,2.09925,-1.00725,68.4777,9,0,0,0
0,1406071687,114320,12.8363,36.6295,2.54611,38.897,-8.73124,-0.105819,3.41258,9.37504,1.73825,2.30276,-1.57351,68.4625,7,0,0,0
0,1406071688,115329,12.7063,37.2761,2.51224,39.4622,-8.73709,-0.092086,3.4092,9.37912,1.37455,2.4859,-1.99924,68.4782,7,0,0,0
0,1406071689,116330,12.5486,37.1728,2.52289,39.3147,-8.68957,-0.201101,3.49419,9.36795,2.05076,2.68856,-0.0789517,68.5045,8,0,0,0
0,1406071690,117338,12.6671,36.6274,2.14703,38.8153,-8.68424,-0.16271,3.45292,9.34694,2.70465,2.70766,-2.24568,68.4923,8,0,0,0
0,1406071691,118341,12.8758,36.9665,2.36141,39.2158,-8.71751,-0.1126,3.46133,9.38021,2.41258,2.78093,-1.96355,68.6056,8,0,0,0
0,1406071692,119345,13.1254,36.6635,2.24385,39.0067,-8.71731,-0.11014,3.39815,9.35687,2.08357,2.15724,-0.750635,68.5354,7,0,0,0
0,1406071693,120347,12.7856,37.2471,2.20603,39.4421,-8.69986,-0.124248,3.39357,9.33912,2.17972,0.893961,-1.54408,68.3587,7,0,0,0
0,1406071694,121353,12.4952,37.0904,2.26797,39.2042,-8.70291,-0.142477,3.44062,9.35942,1.87697,1.58437,-1.60874,68.3227,8,0,0,0
0,1406071695,122357,12.5081,36.9307,2.16228,39.0513,-8.68381,-0.121931,3.41806,9.33309,1.39787,2.47162,-1.77581,68.4253,7,0,0,0
0,1406071696,123366,13.3179,36.6273,2.19957,39.0354,-8.80986,-0.0468768,3.33928,9.4216,3.62136,2.70231,-2.31796,68.341,7,0,0,0
0,1406071697,124368,12.5924,36.8489,2.40259,39.0152,-8.70018,-0.122431,3.41758,9.34815,2.58237,2.16792,-1.07736,68.2504,6,0,0,0
0,1406071698,125372,13.0014,36.8266,2.36432,39.1257,-8.67255,-0.168306,3.47721,9.34518,0.191989,2.76448,-2.54736,68.3874,7,0,0,0
0,1406071699,126379,12.7945,36.7242,2.19417,38.951,-8.74036,-0.0766689,3.50718,9.41807,2.20645,2.72661,-0.454878,68.2683,7,0,0,0
0,1406071700,127392,12.3986,36.9602,2.10409,39.0411,-8.67102,0.0332759,3.50237,9.3517,2.02531,2.33671,-2.07928,68.4005,8,0,0,0
0,1406071701,128395,12.5637,37.3117,2.32373,39.4387,-8.65755,-0.142214,3.52863,9.35011,0.814003,1.71738,-2.81168,68.3723,7,0,0,0
0,1406071702,129399,12.614,37.1686,2.34668,39.3209,-8.76251,-0.132504,3.37105,9.38953,2.18161,3.04714,0.102655,68.4412,8,0,0,0
0,1406071703,130405,13.0407,36.971,2.6905,39.2957,-8.76271,-0.577005,3.49008,9.4498,2.89798,2.48538,-1.08956,68.402,8,0,0,0
0,1406071704,131410,12.389,37.1925,2.59169,39.2873,-9.03049,-0.252093,3.37662,9.64442,2.64244,2.96028,-6.85692,68.4045,7,0,0,0
0,1406071705,132416,12.3721,36.9218,2.30342,39.0076,-8.70576,-0.175464,3.43937,9.36218,3.32227,1.86958,-1.3167,68.5232,8,0,0,0
0,1406071706,133424,12.3186,36.8339,2.25017,38.9043,-8.69621,-0.204355,3.42891,9.35004,1.43811,2.58431,-2.64359,68.6026,8,0,0,0
0,1406071707,134429,12.5423,36.6437,2.2875,38.7982,-8.70164,-0.24688,3.40915,9.34889,3.09969,1.71757,-1.71116,68.4508,8,0,0,0
0,1406071708,135431,12.7236,36.4987,2.5036,38.7339,-8.71645,-0.227506,3.42771,9.36896,2.53521,2.5178,-2.04309,68.4953,7,0,0,0
0,1406071709,136434,12.5529,36.8883,2.73767,39.0617,-8.70331,-0.243257,3.39152,9.34394,2.67798,1.96149,-1.93912,68.5027,8,0,0,0
0,1406071710,137441,12.4818,37.0149,2.35599,39.1337,-8.71139,-0.234291,3.39586,9.35281,2.49992,2.19379,-1.85064,68.5658,7,0,0,0
0,1406071711,138447,12.2563,37.0408,2.42865,39.0914,-8.70908,-0.240025,3.39486,9.35044,2.56121,2.8703,-1.71431,68.4793,8,0,0,0
0,1406071712,139457,12.2909,36.7251,2.17336,38.7882,-8.69742,-0.2499,3.40151,9.34226,2.57659,2.9574,-1.40617,68.4444,6,0,0,0
0,1406071713,140463,12.0635,37.3339,2.12026,39.2918,-8.70221,-0.226593,3.38729,9.34096,3.61451,1.6186,-1.91525,68.3653,8,0,0,0
0,1406071714,141474,12.6322,36.9815,2.19635,39.1411,-8.70648,-0.226459,3.43072,9.36076,1.9974,2.26396,-1.18145,68.3583,7,0,0,0
0,1406071715,142478,12.2475,36.9049,2.07772,38.9395,-8.70779,-0.231569,3.42268,9.35916,2.2261,2.57441,-1.17622,68.5556,8,0,0,0
0,1406071716,143487,12.3004,37.1754,2.41347,39.2318,-8.69972,-0.267754,3.412,9.34872,3.53937,1.90513,-0.160628,68.4247,7,0,0,0
0,1406071717,144498,12.43,36.8817,2.34041,38.9903,-8.70032,-0.222586,3.43291,9.35575,2.44762,2.34677,-0.732828,68.3279,8,0,0,0
0,1406071718,145506,12.3446,37.3764,2.08311,39.4173,-8.69812,-0.21338,3.40664,9.34388,2.05333,2.80168,-1.67652,68.3872,9,0,0,0
0,1406071719,146511,12.2606,37.1255,2.07417,39.1526,-8.68581,-0.22256,3.41422,9.3354,2.42412,1.87155,-0.791699,68.3644,8,0,0,0
0,1406071720,147518,12.4755,37.0568,2.19037,39.1617,-8.69544,-0.231301,3.41941,9.34647,0.58212,2.79593,-1.74263,68.2018,8,0,0,0
0,1406071721,148523,12.2929,37.0934,2.31871,39.146,-8.71236,-0.227925,3.41695,9.36123,1.92123,2.21783,-0.734383,68.2732,7,0,0,0
0,1406071722,149533,12.5683,37.0222,2.21876,39.1603,-8.70841,-0.215098,3.43728,9.36469,2.69415,1.81514,-1.27323,68.2785,7,0,0,0
0,1406071723,150537,12.3057,36.8432,2.52989,38.9262,-8.72352,-0.250739,3.41576,9.37177,2.65734,2.91419,-1.34631,68.1647,8,0,0,0
0,1406071724,151539,12.4328,36.8074,2.24046,38.915,-8.70095,-0.224924,3.40536,9.34632,2.22642,2.6312,-1.13327,68.1125,8,0,0,0
0,1406071725,152550,12.4306,37.1337,2.4629,39.2365,-8.68582,-0.23862,3.41415,9.33578,2.13254,2.86621,-2.25227,68.0279,8,0,0,0
0,1406071726,153555,12.4424,37.2086,2.04324,39.287,-8.70105,-0.245808,3.43552,9.35797,2.31406,3.0528,-2.31099,68.1806,7,0,0,0
0,1406071727,154561,12.4401,36.9355,2.37814,39.0467,-8.71574,-0.208205,3.43514,9.37057,1.79901,2.20137,-1.54157,68.187,7,0,0,0
0,1406071728,155563,12.4486,36.7496,2.57692,38.8863,-8.71015,-0.219714,3.44006,9.36745,2.25564,1.90417,-0.608208,68.1036,7,0,0,0
0,1406071729,156568,12.3001,36.9437,2.12497,38.9955,-8.7112,-0.222879,3.42224,9.36197,2.89067,2.92896,-1.28381,68.2087,8,0,0,0
0,1406071730,157571,12.1307,37.0109,2.45751,39.0257,-8.69284,-0.220422,3.39138,9.33357,2.27603,1.28577,-1.27414,68.0709,7,0,0,0
0,1406071731,158573,12.3636,36.7304,2.14997,38.815,-8.71624,-0.218894,3.44207,9.37383,3.38693,1.02566,-2.99462,68.0902,7,0,0,0
0,1406071732,159580,12.5682,36.9022,2.5423,39.0666,-8.7092,-0.245224,3.40772,9.35537,2.04402,1.32173,-1.4969,68.0808,8,0,0,0
0,1406071733,160581,12.4984,37.0029,2.17889,39.1174,-8.72147,-0.228289,3.42436,9.37243,1.09004,2.14096,-2.03244,68.1011,8,0,0,0
0,1406071734,161584,12.2639,37.1147,2.25231,39.1533,-8.72399,-0.251613,3.44397,9.38255,2.13897,2.86792,-2.28731,68.1259,7,0,0,0
0,1406071735,162586,12.4687,37.1867,2.05854,39.2753,-8.71413,-0.207992,3.42628,9.36583,2.51265,1.64075,-1.59593,68.3403,9,0,0,0
0,1406071736,163594,12.229,37.0712,2.01664,39.0883,-8.71277,-0.256499,3.4141,9.36131,4.66313,2.25091,-0.756654,68.3051,6,0,0,0
0,1406071737,164598,12.2738,37.0626,2.54965,39.1252,-8.71151,-0.253056,3.42298,9.3633,2.52169,1.81051,-1.93929,68.2677,8,0,0,0
0,1406071738,165604,12.7681,36.7048,2.50767,38.943,-8.71061,-0.248828,3.43339,9.36616,1.61967,3.77237,-1.90392,68.3862,7,0,0,0
0,1406071739,166608,12.2533,37.1555,2.43164,39.1994,-8.69197,-0.242072,3.41348,9.34135,2.5365,2.92632,-2.18418,68.3771,7,0,0,0
0,1406071740,167609,12.6882,36.7331,2.42135,38.938,-8.7081,-0.235706,3.43151,9.36279,1.61977,2.17686,-1.98647,68.3257,7,0,0,0
0,1406071741,168610,12.4638,36.7047,2.27485,38.8299,-8.70386,-0.243795,3.40769,9.35034,3.26557,2.90656,-0.796939,68.3483,7,0,0,0
0,1406071742,169614,12.3318,36.7369,2.69789,38.8452,-8.6995,-0.213794,3.4137,9.34775,3.66473,1.02878,-1.4743,68.3552,8,0,0,0
0,1406071743,170619,12.5239,37.2079,2.23706,39.3227,-8.69822,-0.219103,3.39711,9.34063,4.51473,1.83554,-3.23873,68.3798,7,0,0,0
0,1406071744,171627,12.3576,37.0195,2.23709,39.0916,-8.70287,-0.210359,3.42396,9.35455,1.42436,3.66886,-3.22851,68.1548,6,0,0,0
0,1406071745,172636,12.7627,36.8682,2.5777,39.0998,-8.71336,-0.225077,3.41963,9.36307,1.47313,3.3258,-1.56991,68.247,6,0,0,0
0,1406071746,173661,12.401,37.0633,2.31886,39.1517,-8.70622,-0.239204,3.39554,9.34801,3.43711,2.89172,-1.36196,68.2053,7,0,0,0
0,1406071747,174668,12.5455,36.8395,2.22836,38.9808,-8.71631,-0.233129,3.4325,9.37072,3.79466,1.64567,-1.51638,68.1686,6,0,0,0
0,1406071748,175669,12.451,37.1322,2.12741,39.2218,-8.70566,-0.22572,3.41432,9.35399,2.13369,2.39733,-1.56411,68.1573,8,0,0,0
0,1406071749,176674,12.7062,36.8277,2.56452,39.0423,-8.68408,-0.21084,3.40488,9.33011,2.3146,2.11308,-1.2849,68.2438,7,0,0,0
0,1406071750,177680,12.0854,36.2298,2.75042,38.2913,-8.72741,-0.204188,3.46021,9.39054,3.17683,2.83208,-1.76961,68.2283,7,0,0,0
0,1406071751,178687,12.6921,36.5425,2.47826,38.7632,-8.68835,-0.222287,3.41368,9.33757,2.32241,3.08076,-1.34872,68.1814,7,0,0,0
0,1406071752,179691,12.4778,37.1278,2.28931,39.2353,-8.68832,-0.218155,3.40594,9.33461,2.63331,3.04164,-1.79235,68.1425,8,0,0,0
0,1406071753,180699,12.6608,36.7766,2.46086,38.9727,-8.722,-0.220185,3.41283,9.36852,1.15444,2.08271,-0.722601,68.2015,7,0,0,0
0,1406071754,181710,12.5309,36.5725,2.60669,38.7475,-8.71679,-0.20823,3.41161,9.36295,2.87578,1.91795,-1.79609,68.1761,7,0,0,0
0,1406071755,182715,12.4676,36.5203,2.71831,38.6854,-8.71224,-0.215599,3.41257,9.35923,1.78261,2.12311,-2.22294,68.169,7,0,0,0
0,1406071756,183717,12.2942,36.7849,2.72587,38.8807,-8.66496,-0.246935,3.42271,9.31973,2.64082,1.79235,-0.903198,68.1449,8,0,0,0
0,1406071757,184724,12.3694,37.1694,2.52669,39.2549,-8.70884,-0.23791,3.433,9.36408,1.94884,3.52219,-0.660187,68.2709,8,0,0,0
0,1406071758,185729,12.5076,37.1246,2.15578,39.2342,-8.68661,-0.232857,3.4022,9.33201,2.01164,3.11102,-1.02725,68.1699,7,0,0,0
0,1406071759,186730,12.3566,36.9695,2.45659,39.0572,-8.72946,-0.239229,3.40359,9.37258,1.81958,1.7486,-1.43344,68.2712,7,0,0,0
0,1406071760,187734,12.2859,37.1153,1.88711,39.1415,-8.7034,-0.254175,3.40203,9.34813,2.14096,2.36514,-0.313866,68.1931,7,0,0,0
0,1406071761,188735,12.3779,37.0397,2.30597,39.1212,-8.72073,-0.222096,3.44253,9.37824,1.26519,2.23638,-1.0281,68.108,8,0,0,0
0,1406071762,189739,12.1551,37.1377,2.02579,39.1287,-8.72631,-0.234224,3.40044,9.36837,1.57651,2.23238,-1.32907,68.0891,8,0,0,0
0,1406071763,190743,12.4246,37.1164,2.31401,39.2091,-8.70804,-0.221414,3.41962,9.35804,2.62532,3.86761,-2.3438,68.1649,8,0,0,0
0,1406071764,191744,12.3879,36.8362,2.25761,38.9289,-8.72388,-0.21727,3.40923,9.36889,1.61232,1.85338,-2.49045,68.1129,7,0,0,0
0,1406071765,192746,12.2823,37.0264,2.18337,39.0714,-8.69832,-0.232462,3.42217,9.35019,2.15786,2.4305,-0.893077,68.1188,8,0,0,0
0,1406071766,193755,12.5681,37.2698,2.28573,39.3983,-8.70825,-0.211082,3.43462,9.36348,2.42546,3.44409,-1.1691,68.1965,8,0,0,0
0,1406071767,194756,12.6201,36.2853,2.27581,38.4846,-8.68884,-0.223362,3.41082,9.337,3.59058,2.28047,-1.96566,68.2073,8,0,0,0
0,1406071768,195769,12.2553,37.307,2.40419,39.3419,-8.72008,-0.230816,3.41453,9.36761,2.0248,2.26103,0.44844,68.2023,8,0,0,0
0,1406071769,196771,12.3662,37.4468,1.97585,39.4853,-8.67391,-0.226958,3.43546,9.33224,2.07006,2.10049,-2.67533,68.2191,8,0,0,0
0,1406071770,197775,12.0919,37.2808,2.2121,39.2551,-8.712,-0.232999,3.43016,9.36585,1.81042,2.89333,-0.999615,68.2184,7,0,0,0
0,1406071771,198777,12.3536,37.0736,2.21659,39.1405,-8.69781,-0.216214,3.40802,9.34416,3.65092,1.96587,-1.06982,68.2487,8,0,0,0
0,1406071772,199785,12.0992,37.1539,2.26797,39.1401,-8.7219,-0.2278,3.43046,9.37505,1.32608,1.96257,-1.62114,68.1643,7,0,0,0
0,1406071773,200787,12.4908,36.8756,2.46654,39.0117,-8.70669,-0.228053,3.42631,9.35938,3.44092,3.24923,-1.13143,68.1611,8,0,0,0
0,1406071774,201791,12.9489,36.1011,2.8637,38.4599,-8.72875,-0.21302,3.41257,9.37455,3.69892,1.25238,-1.00267,68.2649,8,0,0,0
0,1406071775,202795,12.3086,36.3528,2.45157,38.4583,-8.70382,-0.234922,3.42195,9.35529,2.52667,1.29156,-1.70826,68.1146,8,0,0,0
0,1406071776,203802,13.1821,35.6692,3.22999,38.1641,-8.70687,-0.223493,3.44088,9.36479,2.06557,1.34491,-1.71203,68.1713,7,0,0,0
0,1406071777,204811,13.3845,36.0734,3.18594,38.6081,-8.69445,-0.219562,3.43939,9.3526,2.14992,2.57069,-2.0455,68.0669,7,0,0,0
0,1406071778,205820,13.9326,36.0191,2.97578,38.7343,-8.72271,-0.211396,3.43358,9.37655,3.4694,1.99955,-1.06301,68.1502,8,0,0,0
0,1406071779,206829,12.9388,36.4664,2.47901,38.7731,-8.69125,-0.219853,3.41178,9.33951,2.89937,1.81786,-1.68705,68.1811,6,0,0,0
0,1406071781,208051,12.8771,36.4896,2.40224,38.7696,-8.68782,-0.222803,3.41723,9.33838,2.92629,2.02502,-2.19428,68.1874,6,0,0,0
0,1406071782,209059,12.5097,36.7602,2.25025,38.8956,-8.7153,-0.224475,3.40402,9.35918,2.56018,2.80947,-1.37616,68.1073,7,0,0,0
0,1406071783,210063,12.2188,37.1807,2.05417,39.1909,-8.69084,-0.251593,3.43086,9.34691,2.24832,2.36992,-1.42408,68.2302,8,0,0,0
0,1406071784,211071,12.7054,36.5194,2.36587,38.7388,-8.69929,-0.225084,3.41264,9.34743,2.47473,2.6887,-2.3362,68.1677,7,0,0,0
0,1406071785,212076,12.6965,36.5648,2.5876,38.7928,-8.69267,-0.214556,3.41068,9.34031,2.91772,1.46491,-0.362504,68.0512,8,0,0,0
0,1406071786,213078,12.5722,36.8218,2.63302,38.9979,-8.68014,-0.236771,3.44253,9.34087,2.59623,1.98898,-2.21794,67.999,7,0,0,0
0,1406071787,214083,12.5765,36.6756,2.62599,38.8608,-8.71526,-0.251593,3.43498,9.37113,4.5476,2.15819,-1.57582,68.0418,8,0,0,0
0,1406071788,215087,12.4441,36.8898,2.01095,38.9841,-8.72468,-0.215126,3.43919,9.38053,2.45839,2.84653,-1.53386,68.1222,7,0,0,0
0,1406071789,216090,12.3392,36.9695,2.46488,39.0522,-8.70966,-0.253705,3.43101,9.36453,2.11035,2.27358,-0.915535,68.172,8,0,0,0
0,1406071790,217095,12.5011,37.3699,1.922,39.4523,-8.70512,-0.197204,3.40911,9.35094,2.7198,1.91733,-0.624913,68.1097,9,0,0,0
0,1406071791,218096,12.4134,37.0033,2.44048,39.1062,-8.70987,-0.208005,3.42009,9.3596,1.61451,2.11439,-3.17948,68.2302,8,0,0,0
0,1406071792,219097,12.5082,36.8042,2.66032,38.9626,-8.70998,-0.226194,3.42773,9.36291,1.76206,2.84519,-1.39917,68.2356,6,0,0,0
0,1406071793,220103,12.463,37.2001,2.53879,39.3143,-8.70963,-0.226138,3.43396,9.36488,2.05322,1.01917,-2.53024,68.2498,8,0,0,0
0,1406071794,221112,12.3049,37.4063,2.72049,39.472,-8.7045,-0.234193,3.41247,9.35244,2.24414,2.28339,-3.0139,68.2646,7,0,0,0
0,1406071795,222115,12.4352,37.0919,2.36027,39.192,-8.69425,-0.250886,3.43206,9.35051,1.06949,1.65299,-1.69873,68.2651,8,0,0,0
0,1406071796,223118,12.3935,36.8722,2.28033,38.9662,-8.69013,-0.233361,3.42659,9.34422,1.86224,2.51135,-1.52936,68.2851,8,0,0,0
0,1406071797,224120,12.3722,36.9068,2.34347,38.9958,-8.71663,-0.211655,3.43403,9.37107,1.04895,2.18781,-1.33897,68.3433,8,0,0,0
0,1406071798,225122,12.2836,36.8137,2.39432,38.8827,-8.71109,-0.222621,3.43596,9.36688,2.10157,2.35643,-1.15966,68.2388,6,0,0,0
0,1406071799,226127,12.2869,36.9279,2.30773,38.9867,-8.71914,-0.225224,3.42099,9.36895,1.94463,2.68208,-2.2799,68.2682,8,0,0,0
0,1406071800,227136,12.1851,37.3124,2.24902,39.316,-8.68292,-0.215869,3.44303,9.34313,2.28578,3.29725,-2.0724,68.3755,7,0,0,0
0,1406071801,228142,12.2561,37.1441,2.08591,39.1695,-8.70051,-0.247302,3.43017,9.35554,2.09228,2.09809,-2.22649,68.3767,7,0,0,0
0,1406071802,229143,12.3071,36.8112,2.18282,38.8753,-8.70312,-0.22087,3.40289,9.34734,3.05657,2.61759,-1.71398,68.3136,8,0,0,0
0,1406071803,230146,12.3455,37.0298,2.47977,39.1122,-8.70667,-0.224997,3.41733,9.35601,2.04171,3.49293,-1.49896,68.3328,6,0,0,0
0,1406071804,231152,12.6534,36.6538,2.16877,38.837,-8.72231,-0.231585,3.43664,9.37778,2.29807,2.53086,-0.964526,68.4539,8,0,0,0
0,1406071805,232153,12.3356,37.028,2.06731,39.0834,-8.73029,-0.237974,3.41456,9.37731,1.47726,2.88812,-1.22039,68.312,7,0,0,0
0,1406071806,233165,12.4676,37.0364,2.25167,39.1434,-8.7176,-0.221126,3.39529,9.35807,2.80498,3.09454,-1.70532,68.2312,7,0,0,0
0,1406071807,234172,12.5244,37.0578,2.34008,39.187,-8.72133,-0.22201,3.42988,9.37417,1.76069,1.08861,-1.86906,68.2948,8,0,0,0
0,1406071808,235183,12.4965,37.089,2.15858,39.1971,-8.71619,-0.218758,3.44611,9.37526,2.95368,3.43104,-3.19082,68.2571,8,0,0,0
0,1406071809,236186,12.6293,37.0142,2.88249,39.2156,-8.71066,-0.247685,3.42924,9.36464,2.06095,2.25161,-1.6373,68.2995,7,0,0,0
0,1406071810,237195,12.3396,37.0357,2.49807,39.1171,-8.72625,-0.214819,3.45056,9.38616,2.09471,2.35706,-1.52957,68.1935,7,0,0,0
0,1406071811,238199,12.5884,36.7833,2.41779,38.9529,-8.69321,-0.23642,3.40778,9.34028,2.30289,1.79486,-1.99426,68.2451,8,0,0,0
0,1406071812,239205,12.7738,36.7532,2.54625,38.993,-8.68953,-0.20892,3.43737,9.34703,1.48675,3.34207,-1.33938,68.3299,7,0,0,0
0,1406071813,240210,12.7246,36.486,2.25611,38.707,-8.70886,-0.244066,3.41426,9.3574,1.34916,2.18961,-1.83625,68.3639,8,0,0,0
0,1406071814,241214,12.3511,36.9098,2.13513,38.98,-8.70285,-0.198012,3.43067,9.35672,2.60377,1.95565,-1.43569,68.3285,7,0,0,0
0,1406071815,242220,12.892,37.1159,2.25228,39.3557,-8.70096,-0.240713,3.41277,9.34942,3.36321,1.51314,-1.67858,68.2753,7,0,0,0
0,1406071816,243221,12.5264,36.9471,2.66457,39.1037,-8.71591,-0.246629,3.40158,9.35941,2.75261,2.48378,-1.36834,68.299,8,0,0,0
0,1406071817,244227,12.4775,37.2429,2.43175,39.3527,-8.72882,-0.211638,3.42584,9.37941,1.52391,1.37891,-1.03784,68.3614,8,0,0,0
0,1406071818,245232,12.4657,37.2632,2.73243,39.3879,-8.70077,-0.209024,3.40466,9.34552,2.62365,1.87542,-2.00405,68.2469,8,0,0,0
0,1406071819,246240,12.3944,37.087,2.18751,39.1644,-8.69245,-0.242473,3.43427,9.34943,2.29493,1.6453,-1.85967,68.2092,7,0,0,0
0,1406071820,247241,12.7848,36.9429,2.29011,39.1596,-8.69593,-0.21347,3.40952,9.3429,1.73725,2.55903,-2.1218,68.2816,7,0,0,0
0,1406071821,248246,12.5971,36.7758,2.57511,38.9586,-8.72171,-0.224342,3.43323,9.3758,2.55622,3.00469,-1.07854,68.2078,8,0,0,0
0,1406071822,249251,12.8193,37.1277,2.31504,39.3466,-8.69927,-0.222833,3.40085,9.34306,1.18024,2.32084,-0.3135,68.2306,7,0,0,0
0,1406071823,250258,12.6911,36.8706,2.31536,39.0623,-8.70193,-0.256142,3.3941,9.34393,2.9017,1.31968,-1.72568,68.1808,8,0,0,0
0,1406071824,251265,12.1537,37.3847,2.46794,39.388,-8.71911,-0.234568,3.39327,9.35907,2.54184,1.69257,-1.38955,68.175,8,0,0,0
0,1406071825,252269,12.6273,36.7104,2.70449,38.9155,-8.68906,-0.189241,3.43142,9.34399,3.11682,2.84456,-1.19178,68.1308,7,0,0,0
0,1406071826,253274,12.6317,36.9944,2.33526,39.1612,-8.71515,-0.239807,3.4134,9.36283,2.49274,2.90186,-1.76505,67.9989,7,0,0,0
0,1406071827,254279,12.2523,37.2381,2.00462,39.2532,-8.70407,-0.103336,3.46004,9.36714,1.88302,3.30134,-0.501257,67.9405,7,0,0,0
0,1406071828,255287,12.2383,37.1652,2.1612,39.188,-8.75132,-0.311435,3.3409,9.37253,1.32665,1.71343,-2.41375,67.9203,8,0,0,0
0,1406071829,256295,12.5342,37.2139,2.63752,39.3565,-8.73032,-0.273471,3.39382,9.37077,3.01092,2.79533,-1.4168,67.9848,7,0,0,0
0,1406071830,257300,12.7171,36.8389,2.26696,39.038,-8.67319,-0.256911,3.45102,9.33808,3.12657,2.43369,-2.0328,68.0118,8,0,0,0
0,1406071831,258308,12.5437,36.7893,2.35408,38.9402,-8.70769,-0.200246,3.45529,9.37033,2.59723,3.15747,-0.800045,67.9983,8,0,0,0
0,1406071832,259311,12.5723,36.9072,2.35244,39.0607,-8.69965,-0.250213,3.41225,9.34826,2.97705,2.97188,-0.966952,67.89,8,0,0,0
0,1406071833,260317,12.6091,37.1946,2.25227,39.3383,-8.69965,-0.205316,3.45793,9.36394,2.71196,1.74755,-1.58761,68.0016,8,0,0,0
0,1406071834,261318,12.3763,37.1586,2.45111,39.2421,-8.71694,-0.205429,3.42812,9.36905,2.15401,1.97362,-0.939822,67.9263,8,0,0,0
0,1406071835,262324,12.4095,37.1785,2.2208,39.2577,-8.73879,-0.21337,3.39595,9.37787,3.12964,1.84193,-0.302442,67.9718,8,0,0,0
0,1406071836,263329,12.5627,36.9092,2.33662,39.0586,-8.71906,-0.208576,3.39859,9.36034,4.17122,2.2486,-1.06361,67.9934,8,0,0,0
0,1406071837,264333,12.5864,36.8751,2.16526,39.0241,-8.69542,-0.241693,3.43992,9.35423,3.22989,2.97729,-0.978061,67.8692,7,0,0,0
0,1406071838,265337,12.2425,37.0606,2.46381,39.108,-8.69703,-0.207721,3.45167,9.35924,3.89733,2.54485,-1.2731,67.8375,8,0,0,0
0,1406071839,266338,12.5041,37.1163,2.37998,39.2382,-8.7187,-0.252693,3.41819,9.36822,1.62556,3.11282,-2.21185,67.7736,7,0,0,0
0,1406071840,267342,12.5303,36.9759,2.49676,39.1211,-8.7041,-0.232318,3.40662,9.34988,0.215011,1.5262,-1.0522,67.7911,8,0,0,0
0,1406071841,268349,12.5645,37.0175,2.30413,39.1596,-8.70553,-0.21977,3.44163,9.36373,2.59719,0.32647,-3.21041,67.8409,7,0,0,0
0,1406071842,269352,12.3114,36.9337,2.33508,39.0016,-8.7349,-0.214845,3.45255,9.39493,1.56078,2.88659,-0.47233,67.9464,8,0,0,0
0,1406071843,270360,12.3558,36.8258,2.5436,38.9265,-8.71256,-0.231943,3.44268,9.37094,1.71401,1.20923,-1.53125,67.9133,7,0,0,0
0,1406071844,271362,12.5421,37.2382,2.26357,39.3588,-8.70828,-0.223468,3.43405,9.36359,1.82999,2.34883,-1.65075,67.9779,7,0,0,0
0,1406071845,272366,12.5884,36.9133,2.43468,39.0767,-8.69308,-0.227936,3.44069,9.352,2.04453,0.875686,-0.454764,67.9684,7,0,0,0
0,1406071846,273367,12.2703,36.7552,2.27599,38.8161,-8.69916,-0.257038,3.40676,9.34598,1.90701,2.40472,-1.86798,67.9175,6,0,0,0
0,1406071847,274372,12.488,37.0044,2.22023,39.1178,-8.7173,-0.261755,3.43459,9.37317,1.65762,2.15603,-0.352374,67.7799,7,0,0,0
0,1406071848,275375,12.5645,36.9817,2.09867,39.1142,-8.70616,-0.226973,3.42571,9.35864,2.738,2.23029,-0.844874,67.7178,7,0,0,0
0,1406071849,276379,12.5693,37.2241,2.48902,39.3677,-8.71126,-0.200279,3.42076,9.36097,2.90975,2.46919,-1.61307,67.8155,7,0,0,0
0,1406071850,277382,12.4021,36.7502,2.38438,38.8597,-8.68948,-0.24846,3.44518,9.35083,1.73531,2.53639,-0.462656,67.7933,8,0,0,0
0,1406071851,278389,12.3239,36.7638,2.42741,38.8503,-8.71147,-0.211041,3.41945,9.36092,2.17344,2.4298,-2.66937,68.0013,8,0,0,0
0,1406071852,279394,12.3573,37.2346,2.45729,39.3085,-8.70546,-0.231884,3.42745,9.35875,1.81422,2.67456,-0.725571,67.9454,9,0,0,0
0,1406071853,280397,12.2465,37.0937,2.19558,39.1246,-8.71181,-0.210415,3.44352,9.37004,2.72065,2.23026,-1.2384,68.0071,7,0,0,0
0,1406071854,281398,12.504,36.8565,2.76911,39.0182,-8.70346,-0.233059,3.40134,9.34739,1.20506,3.04627,-1.69201,67.9436,8,0,0,0
0,1406071855,282402,12.51,36.7919,2.40298,38.9348,-8.7078,-0.229035,3.46612,9.37509,2.49946,1.61226,-0.813816,68.109,7,0,0,0
0,1406071856,283413,12.4269,36.9253,2.58754,39.0461,-8.72105,-0.214908,3.42288,9.37118,1.30608,3.13993,-1.50024,68.0723,7,0,0,0
0,1406071857,284420,12.5549,36.9852,2.62817,39.1464,-8.69546,-0.229946,3.41642,9.34536,1.38053,1.73815,-1.26416,68.1003,8,0,0,0
0,1406071858,285424,12.2693,37.0178,2.21035,39.0607,-8.72454,-0.229361,3.42491,9.37551,1.74328,2.16946,-1.96051,68.0354,7,0,0,0
0,1406071859,286428,12.1131,37.0649,2.36584,39.0658,-8.70415,-0.218726,3.44328,9.36302,2.53383,3.49149,-1.04312,68.0835,8,0,0,0
0,1406071860,287434,12.4448,37.2181,2.40397,39.3171,-8.7225,-0.226341,3.42196,9.37247,2.14879,2.07804,-0.714884,68.0926,7,0,0,0
0,1406071861,288435,12.4009,37.1686,2.11239,39.2396,-8.71418,-0.223305,3.41497,9.36209,3.40245,2.53045,-1.41774,68.0754,8,0,0,0
0,1406071862,289443,12.345,37.0121,2.29128,39.0838,-8.72462,-0.223639,3.42915,9.377,1.77847,2.08522,-0.801573,68.2074,7,0,0,0
0,1406071863,290451,12.3195,37.2611,2.54166,39.3271,-8.70979,-0.22714,3.4247,9.36165,2.2897,3.10794,-1.74467,68.2176,8,0,0,0
0,1406071864,291455,12.4477,36.9149,2.49109,39.0367,-8.69983,-0.19586,3.42842,9.35304,2.73215,2.45791,-1.75636,68.3187,7,0,0,0
0,1406071865,292458,12.2264,37.2515,2.54874,39.2894,-8.68523,-0.211627,3.42444,9.33835,1.36224,3.09625,-1.93731,68.2229,8,0,0,0
0,1406071866,293463,12.1933,36.9836,2.62368,39.0301,-8.69717,-0.214023,3.41769,9.34704,2.74918,2.18644,-1.16377,68.2135,7,0,0,0
0,1406071867,294471,12.4216,36.8267,2.46498,38.9433,-8.70825,-0.233404,3.4397,9.36587,2.6722,2.24752,-0.556723,68.2553,8,0,0,0
0,1406071868,295479,12.6223,36.9864,2.42022,39.1558,-8.70065,-0.208822,3.42068,9.35126,1.90018,2.4562,-2.1638,68.3279,7,0,0,0
0,1406071869,296480,12.1447,37.0855,2.1299,39.0815,-8.68623,-0.240273,3.44375,9.34707,2.96986,3.28099,-1.17567,68.322,8,0,0,0
0,1406071870,297484,12.5121,36.5551,2.18603,38.699,-8.71891,-0.240478,3.39807,9.36077,2.62594,2.82962,-1.77792,68.2899,7,0,0,0
0,1406071871,298490,12.5662,36.9509,2.44126,39.1055,-8.71746,-0.240927,3.43644,9.37344,1.26495,2.6422,-1.71853,68.213,8,0,0,0
0,1406071872,299492,12.2035,37.1427,2.34854,39.1666,-8.71426,-0.219973,3.42628,9.36622,2.14395,1.09141,-1.14832,68.085,7,0,0,0
0,1406071873,300503,12.1898,37.006,2.09677,39.0183,-8.70118,-0.203482,3.39668,9.34288,0.849801,2.35658,-1.37753,68.0278,8,0,0,0
0,1406071874,301510,12.2567,37.0624,2.83976,39.1397,-8.71641,-0.208324,3.416,9.3642,2.41602,1.47612,-2.29778,68.1344,9,0,0,0
0,1406071875,302513,12.2334,37.1171,2.17609,39.1417,-8.69537,-0.221936,3.44905,9.35706,2.73036,1.69453,-0.702376,67.9948,8,0,0,0
0,1406071876,303524,12.2822,36.7789,2.19619,38.8376,-8.69654,-0.239541,3.44529,9.3572,2.85505,1.92323,-1.47373,67.9602,8,0,0,0
0,1406071877,304525,12.4168,36.8867,2.24438,38.9851,-8.71149,-0.209815,3.40837,9.35687,2.55933,2.16393,-1.44367,67.9736,7,0,0,0
0,1406071878,305529,12.4895,36.9693,2.20132,39.084,-8.72008,-0.215715,3.43064,9.37313,3.03042,2.99576,-0.87343,68.0237,8,0,0,0
0,1406071879,306535,12.6259,36.7316,2.45532,38.9185,-8.69438,-0.23601,3.38679,9.33372,3.59117,1.47992,-1.77068,67.969,8,0,0,0
0,1406071880,307540,12.3392,37.1713,2.19955,39.2275,-8.70114,-0.207721,3.4263,9.35374,3.24874,2.28344,-1.79796,68.0312,8,0,0,0
0,1406071881,308541,12.5692,37.1746,2.48029,39.3203,-8.70611,-0.214049,3.42596,9.35838,2.09971,3.87093,-1.39475,68.1113,7,0,0,0
0,1406071882,309546,12.6165,36.9252,2.64244,39.1105,-8.70459,-0.22509,3.40098,9.34811,1.8086,2.33499,-0.549409,68.0379,8,0,0,0
0,1406071883,310550,12.3799,36.7845,2.20337,38.8744,-8.7176,-0.216674,3.41425,9.36486,2.2298,1.41345,-1.28638,68.1541,8,0,0,0
0,1406071884,311552,12.339,37.1896,2.27306,39.249,-8.71356,-0.226776,3.42102,9.36381,2.45385,1.91934,-1.66778,68.0343,7,0,0,0
0,1406071885,312567,12.5344,36.8323,2.2728,38.973,-8.72149,-0.232349,3.46392,9.38707,2.44879,1.89995,-0.535224,68.1752,7,0,0,0
0,1406071886,313573,12.6369,37.1338,2.22446,39.2882,-8.69482,-0.232905,3.43567,9.3519,3.30493,2.66883,-2.61774,68.151,8,0,0,0
0,1406071887,314591,12.9405,36.9687,2.82947,39.2701,-8.70933,-0.218627,3.41244,9.35655,3.26014,3.20941,-1.39849,68.0748,8,0,0,0
0,1406071888,315595,12.3504,37.0305,2.39755,39.1093,-8.70745,-0.20594,3.44015,9.36465,3.19456,2.38029,-1.07532,68.1374,7,0,0,0
0,1406071889,316597,12.3604,37.0772,2.48983,39.1625,-8.73707,-0.193414,3.41005,9.38095,2.29,1.88305,-2.31384,68.0266,6,0,0,0
0,1406071890,317603,12.667,36.8342,2.25376,39.0166,-8.71176,-0.235303,3.43615,9.36789,3.27052,2.44664,-1.56921,68.0137,7,0,0,0
0,1406071891,318609,12.5278,37.0156,2.41048,39.1524,-8.71184,-0.207418,3.40417,9.35562,2.44834,1.62822,-1.21185,68.0133,8,0,0,0
0,1406071892,319615,12.5177,37.0086,2.57274,39.1529,-8.70602,-0.2269,3.42926,9.35982,2.4719,3.45414,-1.49805,68.0838,7,0,0,0
0,1406071893,320622,12.3504,36.8757,2.31056,38.9575,-8.6918,-0.24157,3.43933,9.35065,2.2317,3.22516,-1.65543,68.0231,7,0,0,0
0,1406071894,321630,12.46,36.6656,2.22358,38.7887,-8.70097,-0.243233,3.4356,9.35785,2.27129,1.94507,-0.713714,68.0695,6,0,0,0
0,1406071895,322640,12.4688,36.8959,2.49686,39.0258,-8.70307,-0.243084,3.39772,9.34596,1.11383,0.787429,-1.30477,68.1169,7,0,0,0
0,1406071896,323645,12.3642,36.828,2.64329,38.9379,-8.71082,-0.215629,3.41558,9.35901,1.48671,2.41821,-2.09324,68.1633,7,0,0,0
0,1406071897,324653,12.3387,36.5364,2.30422,38.6324,-8.70742,-0.230236,3.40638,9.35284,2.45021,1.87266,-1.4725,68.156,8,0,0,0
0,1406071898,325660,12.4093,36.8616,2.51977,38.9759,-8.71319,-0.209856,3.40305,9.35652,2.38068,1.7133,-1.23946,68.0547,8,0,0,0
0,1406071899,326662,12.498,37.0948,2.54572,39.2263,-8.7066,-0.229264,3.44234,9.36521,2.32344,1.66709,-1.482,68.0969,8,0,0,0
0,1406071900,327663,12.4399,36.9919,2.37777,39.0999,-8.71098,-0.24285,3.44305,9.36988,0.884566,2.94548,-0.144077,68.1061,8,0,0,0
0,1406071901,328671,12.4827,36.7722,2.46858,38.9115,-8.70039,-0.245985,3.45502,9.36453,3.09686,2.78832,-1.79867,68.2266,8,0,0,0
0,1406071902,329682,12.2637,36.6625,2.47259,38.7383,-8.7113,-0.213408,3.43535,9.36664,2.90762,2.41621,-1.40746,68.1145,7,0,0,0
0,1406071903,330683,12.3051,37.2278,2.54061,39.2909,-8.71311,-0.223712,3.42005,9.36297,3.5663,3.39736,-2.12404,68.1351,7,0,0,0
0,1406071904,331687,12.6107,37.0736,2.57749,39.2445,-8.69759,-0.228412,3.4383,9.35532,3.49351,3.17251,-1.5644,68.1479,8,0,0,0
0,1406071905,332691,12.482,36.8395,2.21785,38.9598,-8.68978,-0.222401,3.43372,9.34624,3.42369,2.81065,-1.16541,68.1196,8,0,0,0
0,1406071906,333697,12.221,36.9881,2.42479,39.0302,-8.71205,-0.232057,3.4058,9.35698,3.5458,3.00993,-0.991558,68.1361,7,0,0,0
0,1406071907,334699,12.2788,36.6218,2.45654,38.7035,-8.72412,-0.235122,3.40732,9.36885,3.72822,1.57731,-1.74761,68.0524,8,0,0,0
0,1406071908,335707,12.5826,36.8386,2.16711,38.9884,-8.71651,-0.222646,3.43254,9.37067,2.13136,2.8032,-1.97562,68.0806,7,0,0,0
0,1406071909,336710,12.4679,36.8907,2.40507,39.0148,-8.71291,-0.213287,3.43363,9.3675,2.43174,1.94073,-1.48445,68.0583,7,0,0,0
0,1406071910,337718,12.5751,36.8216,2.29364,38.9772,-8.71718,-0.254921,3.44524,9.37678,2.61112,2.21021,-2.04832,68.054,8,0,0,0
0,1406071911,338721,12.2411,37.1844,2.38014,39.2198,-8.71674,-0.221751,3.43671,9.37239,2.01948,2.42732,-2.61638,68.0381,8,0,0,0
0,1406071912,339728,12.4456,36.9356,2.14169,39.0348,-8.71114,-0.209144,3.42751,9.36352,2.82004,2.32821,-1.94486,68.1539,8,0,0,0
0,1406071913,340730,12.5786,36.9883,2.53125,39.1505,-8.6845,-0.215462,3.42298,9.33723,2.15636,2.09531,-0.920536,67.9613,7,0,0,0
0,1406071914,341731,12.3978,37.0734,1.83333,39.1344,-8.71431,-0.238339,3.42656,9.36682,3.38651,1.55038,-2.16702,68.0316,8,0,0,0
0,1406071915,342735,12.3168,36.8018,1.97407,38.8583,-8.69616,-0.242698,3.42913,9.351,1.84498,2.43924,-2.51364,67.954,7,0,0,0
0,1406071916,343742,12.5151,37.348,2.42323,39.4635,-8.68995,-0.232196,3.41679,9.34042,3.01049,3.44034,-3.21814,67.915,8,0,0,0
0,1406071917,344747,12.5472,36.8571,2.3908,39.0076,-8.71981,-0.206917,3.4139,9.36657,2.43604,2.66058,-2.22475,67.832,7,0,0,0
0,1406071918,345754,12.6489,36.7319,2.3773,38.9214,-8.71855,-0.210663,3.39519,9.35868,2.06504,3.6721,-0.932333,67.7596,5,0,0,0
0,1406071919,346759,12.5392,37.0261,2.34326,39.1619,-8.71105,-0.240722,3.41469,9.35951,2.77,2.23775,-1.07261,67.6728,8,0,0,0
0,1406071920,347767,12.2617,36.8724,2.52172,38.9395,-8.71702,-0.220602,3.44352,9.37512,2.31031,2.83393,-0.849975,67.9002,8,0,0,0
0,1406071921,348778,12.5337,36.6717,2.52054,38.8363,-8.69891,-0.221966,3.43384,9.35476,2.4247,1.78668,-1.52607,67.9174,8,0,0,0
0,1406071922,349784,12.4702,36.9796,2.30932,39.0939,-8.70243,-0.245166,3.42625,9.35583,2.01281,2.47443,-1.66853,67.9081,6,0,0,0
0,1406071923,350788,12.3121,37.0919,2.61335,39.1692,-8.73334,-0.21355,3.4168,9.38037,2.13185,2.26622,-1.70313,67.8831,8,0,0,0
0,1406071924,351789,12.437,36.9276,2.29556,39.0332,-8.69556,-0.228731,3.41438,9.34468,2.60616,3.409,-2.15167,67.9151,7,0,0,0
0,1406071925,352794,12.4467,36.6423,2.44963,38.776,-8.71636,-0.232169,3.43816,9.37282,3.02674,1.59996,-1.16023,67.9211,8,0,0,0
0,1406071926,353797,12.5293,37.0393,2.51694,39.182,-8.71877,-0.224744,3.41167,9.3652,2.714,2.63303,-1.62048,67.9623,8,0,0,0
0,1406071927,354798,12.3479,36.9135,2.35454,38.9951,-8.70387,-0.204046,3.4245,9.35554,1.91166,2.68462,-1.27271,67.9693,7,0,0,0
0,1406071928,355800,12.4722,37.1446,2.24781,39.247,-8.71103,-0.199537,3.41236,9.35768,2.1988,2.69335,-0.875339,68.0471,7,0,0,0
0,1406071929,356805,12.4879,37.0216,2.32983,39.1405,-8.73114,-0.244067,3.42678,9.38271,1.92439,2.82547,-1.94351,68.0709,8,0,0,0
0,1406071930,357818,12.4145,36.9618,2.10919,39.048,-8.71639,-0.23366,3.42437,9.36784,3.01282,1.96977,-0.931742,68.0751,8,0,0,0
0,1406071931,358825,12.5889,36.8714,2.32395,39.0305,-8.68642,-0.244166,3.42223,9.33944,1.25587,2.01386,-1.25679,68.0508,8,0,0,0
0,1406071932,359834,12.4256,36.7044,2.49241,38.8307,-8.71474,-0.23589,3.4242,9.3663,2.59165,1.50002,-0.716256,68.0801,8,0,0,0
0,1406071933,360841,12.4183,37.2045,2.33887,39.2919,-8.71332,-0.201728,3.43099,9.36666,1.10779,2.78227,-1.77044,68.0936,7,0,0,0
0,1406071934,361848,12.7523,36.8111,2.3716,39.0295,-8.71126,-0.220026,3.40449,9.35548,1.29815,2.21649,-1.37178,67.9376,6,0,0,0
0,1406071935,362850,12.4014,36.9625,2.40693,39.0616,-8.7204,-0.220288,3.43554,9.37533,3.08711,2.78126,-0.497007,67.978,8,0,0,0
0,1406071936,363857,12.7356,36.8672,2.28178,39.0716,-8.69234,-0.218817,3.41695,9.34239,1.87855,2.46075,-1.24672,68.0282,8,0,0,0
0,1406071937,364860,12.3483,37.0804,2.25049,39.1472,-8.71396,-0.220521,3.4216,9.36425,0.674131,1.88681,-1.41091,67.9904,7,0,0,0
0,1406071938,365867,12.5013,36.9972,2.39375,39.1255,-8.69969,-0.230265,3.45201,9.36237,2.027,2.38251,-2.50206,67.9856,6,0,0,0
0,1406071939,366869,12.4771,37.0047,2.37715,39.1238,-8.71526,-0.233752,3.39,9.35427,2.07672,1.73361,-1.08998,67.8654,6,0,0,0
0,1406071940,367883,12.4833,36.9699,2.37014,39.0925,-8.70392,-0.216158,3.39207,9.34404,0.63151,2.26024,-1.46425,67.9008,7,0,0,0
0,1406071941,368889,12.4481,36.7912,2.56508,38.9247,-8.69804,-0.2256,3.3952,9.33993,0.859096,0.933546,-1.39614,67.7955,7,0,0,0
0,1406071942,369894,12.4943,37.0386,2.17979,39.1499,-8.70794,-0.21127,3.42044,9.358,1.40756,3.26274,-2.34558,67.8634,7,0,0,0
0,1406071943,370903,12.5106,36.9724,2.47021,39.1098,-8.71777,-0.212507,3.41754,9.36612,3.42157,3.00115,-1.61576,67.7015,8,0,0,0
0,1406071944,371907,12.6767,36.8616,2.46623,39.0583,-8.71571,-0.232476,3.42484,9.36734,2.76848,1.80058,-2.49791,67.7085,8,0,0,0
0,1406071945,372920,12.4365,37.0842,2.46792,39.1918,-8.71321,-0.216213,3.41572,9.3613,1.63816,1.3345,-2.1672,67.5894,7,0,0,0
0,1406071946,373927,12.4282,36.9511,2.84398,39.0888,-8.71162,-0.239985,3.41201,9.35904,2.48386,1.72478,-1.42201,67.7256,7,0,0,0
0,1406071947,374938,12.3905,36.9947,2.72538,39.1096,-8.70377,-0.235871,3.39905,9.34691,2.61812,2.17813,-1.38376,67.7726,7,0,0,0
0,1406071948,375941,12.5761,36.9722,2.28034,39.1191,-8.70301,-0.21446,3.43349,9.35827,2.73596,1.71364,-1.20664,67.6907,8,0,0,0
0,1406071949,376949,12.4045,37.2443,2.32921,39.3248,-8.6997,-0.236385,3.42798,9.3537,2.53939,2.27007,-1.17213,67.7896,7,0,0,0
0,1406071950,377954,12.5531,37.1369,2.24063,39.2651,-8.69388,-0.231309,3.40732,9.3406,2.64244,2.40259,-1.92644,67.8704,7,0,0,0
0,1406071951,378958,12.3304,36.7811,2.04276,38.8466,-8.70341,-0.230094,3.40091,9.34711,3.25155,2.79119,-0.712352,67.8539,8,0,0,0
0,1406071952,379962,12.5271,37.2373,2.42982,39.3631,-8.6987,-0.231602,3.42384,9.35114,3.12364,1.99723,-2.114,67.9363,8,0,0,0
0,1406071953,380964,12.4762,36.9435,2.59852,39.0798,-8.69419,-0.216165,3.39325,9.3354,2.8751,1.72449,-1.16129,67.7255,8,0,0,0
0,1406071954,381971,12.3663,37.0449,2.29655,39.1219,-8.71124,-0.226407,3.41554,9.35965,2.62963,1.80289,-1.37699,67.7315,7,0,0,0
0,1406071955,382982,12.6582,37.006,2.47462,39.1892,-8.72758,-0.234429,3.42077,9.37696,1.89168,2.54346,-1.93875,67.8514,8,0,0,0
0,1406071956,383987,12.433,36.812,2.32457,38.9244,-8.70345,-0.232414,3.39925,9.3466,1.63857,2.21167,-1.93685,67.7335,7,0,0,0
0,1406071957,384999,12.4359,37.0118,2.22773,39.1086,-8.7018,-0.222708,3.42494,9.3542,2.23018,2.57345,-0.782185,67.6663,9,0,0,0
0,1406071959,386001,12.3181,37.1219,2.20992,39.1747,-8.7049,-0.225491,3.41283,9.35273,2.20272,3.30921,-2.5904,67.6563,8,0,0,0
0,1406071960,387009,12.6195,36.6281,2.2968,38.8091,-8.68318,-0.222683,3.44324,9.34361,3.19607,1.91746,-3.56757,67.6879,7,0,0,0
0,1406071961,388014,12.3163,36.9998,2.1668,39.0561,-8.72757,-0.240228,3.43432,9.38205,1.36119,2.733,-2.26465,67.6814,8,0,0,0
0,1406071962,389018,12.3667,36.9837,2.31097,39.065,-8.70543,-0.236247,3.41884,9.35568,2.11201,2.46474,-1.5143,67.7372,7,0,0,0
0,1406071963,390019,12.5134,36.999,2.5339,39.1399,-8.70931,-0.242404,3.4184,9.35929,2.7335,1.17169,-1.46477,67.7783,8,0,0,0
0,1406071964,391026,12.4756,36.7653,2.57436,38.9096,-8.72033,-0.193727,3.38665,9.35687,1.64315,2.46111,-1.96132,67.7935,7,0,0,0
0,1406071965,392035,12.2887,37.1794,2.04177,39.2108,-8.70474,-0.230896,3.41744,9.3544,2.93426,4.26896,-1.30475,67.8265,8,0,0,0
0,1406071966,393037,12.4916,36.7932,2.22442,38.9195,-8.72926,-0.207503,3.43433,9.38283,2.49087,3.30562,-1.55046,67.8326,8,0,0,0
0,1406071967,394046,12.2508,37.2833,2.04462,39.2977,-8.72045,-0.240839,3.41013,9.3666,3.69139,2.66855,-1.91401,67.8052,7,0,0,0
0,1406071968,395051,12.4596,36.848,2.28494,38.9646,-8.67973,-0.231143,3.39992,9.32473,1.56041,2.56476,-2.1941,67.8562,7,0,0,0
0,1406071969,396061,12.5382,36.7405,2.31813,38.8901,-8.70677,-0.226765,3.4206,9.35733,0.986834,3.17375,-2.17333,67.9242,8,0,0,0
0,1406071970,397063,12.4758,36.6605,2.27783,38.7921,-8.70209,-0.212737,3.39327,9.34269,1.92579,2.46932,-2.91533,67.7977,7,0,0,0
0,1406071971,398073,12.1212,36.7902,2.55821,38.82,-8.70625,-0.219949,3.40456,9.35084,2.17259,2.7557,-1.7299,67.8381,7,0,0,0
0,1406071972,399082,12.6869,36.7967,2.26785,38.9885,-8.6883,-0.230376,3.38744,9.32815,2.24071,2.63325,-0.845067,67.8601,7,0,0,0
0,1406071973,400088,12.4296,36.5644,2.20672,38.6823,-8.71602,-0.2386,3.4286,9.36916,1.97279,0.678183,-2.31135,68.0594,7,0,0,0
0,1406071974,401096,12.3237,36.4489,2.54068,38.5597,-8.70421,-0.203177,3.4509,9.36553,3.31832,1.97483,-0.922494,68.0077,8,0,0,0
0,1406071975,402099,12.7898,36.5395,2.84782,38.8179,-8.70733,-0.225276,3.4141,9.35545,2.33893,3.22176,-0.82289,67.9163,8,0,0,0
0,1406071976,403104,12.5757,36.9147,2.69704,39.0911,-8.7082,-0.240916,3.40852,9.35461,2.2398,2.52207,-1.45176,68.0565,7,0,0,0
0,1406071977,404108,12.4409,37.0854,2.39648,39.1899,-8.70139,-0.219243,3.41985,9.35188,2.22473,2.99309,-0.215186,68.0571,7,0,0,0
0,1406071978,405111,12.3553,37.2542,2.47452,39.3275,-8.70857,-0.225726,3.43459,9.36411,2.47762,2.92086,-1.35625,68.1673,8,0,0,0
0,1406071979,406113,12.5267,37.3708,2.01034,39.4656,-8.70299,-0.198398,3.41972,9.35286,2.2401,1.48475,-1.89533,68.0818,7,0,0,0
0,1406071980,407124,12.2579,37.1672,2.18966,39.1976,-8.7078,-0.216834,3.40232,9.35139,2.80194,2.15183,-1.69471,68.104,8,0,0,0
0,1406071981,408131,12.6971,36.775,2.51819,38.9866,-8.7002,-0.2172,3.43326,9.35564,2.39275,2.21517,-2.14529,68.1245,8,0,0,0
0,1406071982,409132,12.539,36.9001,2.40592,39.0465,-8.70389,-0.243193,3.45926,9.36927,1.77843,2.75761,-1.18894,68.1449,7,0,0,0
0,1406071983,410140,12.358,37.0679,2.21435,39.1363,-8.6974,-0.221436,3.45302,9.3604,1.78182,2.12306,-0.546123,68.2174,7,0,0,0
0,1406071984,411141,12.4012,36.8623,2.28367,38.9594,-8.69884,-0.220906,3.44177,9.35759,2.57346,3.14006,-1.62513,68.0851,7,0,0,0
0,1406071985,412143,12.4112,37.2937,2.14737,39.3633,-8.71254,-0.214404,3.43749,9.3686,1.88074,2.41167,-1.14603,68.2474,7,0,0,0
0,1406071986,413146,12.4556,36.9092,2.3342,39.0241,-8.68588,-0.244311,3.41031,9.33458,2.01456,1.55564,-0.962719,68.1587,7,0,0,0
0,1406071987,414147,12.2804,36.8852,2.53338,38.9582,-8.70747,-0.214719,3.41392,9.35527,2.72978,1.97198,-0.888171,68.2767,7,0,0,0
0,1406071988,415153,12.4637,37.2706,2.63912,39.3879,-8.68577,-0.230794,3.4099,9.33398,2.77877,2.44776,-2.12657,68.1478,7,0,0,0
0,1406071989,416160,12.3903,36.962,2.5233,39.065,-8.72543,-0.211863,3.4184,9.37355,1.36912,2.39643,-1.46426,68.0856,7,0,0,0
0,1406071990,417162,12.6046,36.8784,2.43589,39.0491,-8.72645,-0.185979,3.43592,9.38036,4.12238,2.33223,-0.855917,68.103,7,0,0,0
0,1406071991,418171,12.2487,36.9977,2.3603,39.044,-8.70536,-0.215992,3.43001,9.35922,2.06748,2.77939,0.296354,68.0006,7,0,0,0
0,1406071992,419176,12.7046,36.7311,2.31088,38.9348,-8.69362,-0.223923,3.42803,9.34775,1.45975,2.78877,-1.66267,68.0353,8,0,0,0
0,1406071993,420183,12.2253,37.1933,2.29405,39.2182,-8.70891,-0.224427,3.41771,9.35822,2.31839,3.5255,-2.58563,68.1356,8,0,0,0
0,1406071994,421185,12.5169,36.7913,2.26345,38.9281,-8.71762,-0.22113,3.44003,9.37442,2.4628,1.25354,-0.463531,68.0918,7,0,0,0
0,1406071995,422187,12.498,36.6136,2.71095,38.7828,-8.70291,-0.223395,3.43111,9.35752,1.44885,2.83907,-2.37139,68.0664,7,0,0,0
0,1406071996,423190,12.5231,36.8807,2.33894,39.0191,-8.69708,-0.228653,3.41839,9.34756,2.00639,2.12509,-2.74839,68.1082,8,0,0,0
0,1406071997,424196,12.312,37.14,2.06649,39.1821,-8.70223,-0.218783,3.43071,9.35663,1.92195,1.79498,-2.01171,68.1415,8,0,0,0
0,1406071998,425199,12.8873,36.656,2.84963,38.9598,-8.71374,-0.22953,3.43375,9.3687,2.28105,1.61617,0.0249446,68.1847,7,0,0,0
0,1406071999,426207,12.5226,37.0107,2.48141,39.1506,-8.71024,-0.233308,3.43794,9.36707,2.17912,3.30211,-3.27371,68.2788,8,0,0,0
0,1406072000,427212,12.2863,37.0013,2.04294,39.0413,-8.72107,-0.219317,3.41776,9.36943,2.10956,2.67891,-1.61329,68.1901,8,0,0,0
0,1406072001,428220,12.3069,36.8106,2.20499,38.8759,-8.70283,-0.222996,3.42198,9.35409,3.80492,1.93357,-2.08432,68.1664,8,0,0,0
0,1406072002,429222,12.3197,36.6983,2.26942,38.7774,-8.71152,-0.233968,3.43209,9.36614,2.56013,3.07316,-0.604599,68.1366,8,0,0,0
0,1406072003,430230,12.6736,36.5643,2.44274,38.7755,-8.71366,-0.222931,3.42325,9.36462,2.9673,2.52206,-2.26928,68.1508,7,0,0,0
0,1406072004,431236,12.4458,36.9866,2.50311,39.1046,-8.7006,-0.229807,3.42557,9.35349,0.93159,2.65956,-1.20833,68.2338,8,0,0,0
0,1406072005,432239,12.5056,36.8152,2.51258,38.9623,-8.71566,-0.231188,3.42006,9.36553,2.99551,1.88325,-2.26293,68.1511,8,0,0,0
0,1406072006,433247,12.5955,36.5522,3.02346,38.7795,-8.71856,-0.205594,3.42498,9.36942,1.62346,1.82702,-1.49333,68.1542,7,0,0,0
0,1406072007,434249,12.8956,36.9604,2.03797,39.1985,-8.69938,-0.234839,3.42207,9.3512,2.7484,2.14467,-1.64512,68.1763,8,0,0,0
0,1406072008,435254,12.1631,37.2135,1.99728,39.2017,-8.68806,-0.216316,3.41869,9.33898,1.59393,3.82097,-0.621713,68.1987,7,0,0,0
0,1406072009,436258,12.3147,37.4168,2.17122,39.451,-8.69317,-0.235434,3.41783,9.34389,2.19371,2.62558,-1.91209,68.2568,8,0,0,0
0,1406072010,437261,12.2994,36.7777,2.41564,38.855,-8.73075,-0.255953,3.40457,9.37457,2.52489,1.98018,-1.49819,68.0457,8,0,0,0
0,1406072011,438271,12.4288,37.1083,2.2479,39.1989,-8.71027,-0.225936,3.39797,9.35232,1.98925,1.92244,-0.00767369,67.9743,8,0,0,0
0,1406072012,439277,12.501,36.783,2.47696,38.9281,-8.68426,-0.237549,3.43008,9.34014,2.13088,2.21039,-2.0142,67.9268,8,0,0,0
0,1406072013,440282,12.487,36.83,2.3938,38.9628,-8.70697,-0.233486,3.4126,9.35477,2.36355,2.84797,-1.05449,67.9429,7,0,0,0
0,1406072014,441287,12.6578,36.9344,2.65655,39.1335,-8.72846,-0.225445,3.43476,9.38267,3.30375,2.38256,-0.411576,67.8759,7,0,0,0
0,1406072015,442293,12.333,37.0107,2.36354,39.083,-8.69842,-0.220373,3.41758,9.34831,2.96784,1.09456,-0.706343,67.946,7,0,0,0
0,1406072016,443300,12.4594,37.0098,2.19048,39.1121,-8.72132,-0.220204,3.45288,9.38255,2.6667,2.22361,-0.592232,67.8985,8,0,0,0
0,1406072017,444307,12.5196,37.1163,2.23257,39.2345,-8.70003,-0.211583,3.43981,9.35776,1.8234,2.05191,-2.36434,67.8339,8,0,0,0
0,1406072018,445314,12.2755,37.1639,2.59789,39.2249,-8.72746,-0.224317,3.40614,9.37127,2.54738,2.66006,-1.74884,67.8914,7,0,0,0
0,1406072019,446318,12.4388,37.0519,2.07513,39.1391,-8.71881,-0.232588,3.43703,9.37469,2.00548,3.03251,-2.03579,67.9338,8,0,0,0
0,1406072020,447322,12.2739,37.1238,2.30228,39.168,-8.73307,-0.218123,3.44415,9.39022,2.31641,2.46273,-1.87652,67.9577,7,0,0,0
0,1406072021,448329,12.6502,37.0375,2.62504,39.2262,-8.72185,-0.235801,3.44563,9.38076,2.9758,2.3914,-1.46386,67.9202,7,0,0,0
0,1406072022,449336,12.3407,36.9861,2.39777,39.0642,-8.70033,-0.224728,3.42214,9.35186,2.86693,2.67232,-1.97546,67.8913,7,0,0,0
0,1406072023,450338,12.4089,37.4517,2.47408,39.5314,-8.7078,-0.237481,3.42098,9.3587,3.2118,2.29022,-2.02221,67.9077,8,0,0,0
0,1406072024,451344,12.6511,37.0847,2.64929,39.2727,-8.70953,-0.224976,3.40702,9.35491,3.19267,2.0116,-1.50208,68.0173,8,0,0,0
0,1406072025,452349,12.5297,36.9052,2.49762,39.0541,-8.69883,-0.218623,3.41979,9.34946,2.48709,2.12325,-0.541782,67.8983,8,0,0,0
0,1406072026,453351,12.6515,37.0307,2.39875,39.2057,-8.70359,-0.231939,3.41168,9.35125,2.04444,2.38551,-2.30895,68.0121,8,0,0,0
0,1406072027,454353,12.3486,36.9579,2.32489,39.0356,-8.72722,-0.21351,3.4498,9.38675,1.99579,2.75916,-1.99979,68.0885,7,0,0,0
0,1406072028,455354,12.3506,36.8901,2.18463,38.964,-8.69809,-0.220531,3.4043,9.34317,2.71876,2.79777,-1.50251,68.0839,8,0,0,0
0,1406072029,456355,12.5389,37.0574,2.26431,39.1867,-8.69876,-0.235366,3.4141,9.34772,2.7255,2.59024,-1.16907,67.9131,7,0,0,0
0,1406072030,457358,12.3885,36.902,1.96204,38.9754,-8.71188,-0.22688,3.42733,9.36455,2.66206,2.65887,-1.62743,67.9686,8,0,0,0
0,1406072031,458364,12.5736,37.0335,2.1888,39.171,-8.70136,-0.239852,3.43684,9.35858,2.46424,1.72738,-0.704199,67.9629,7,0,0,0
0,1406072032,459369,12.2911,36.8781,2.39641,38.9462,-8.69251,-0.227828,3.44903,9.35454,2.8216,2.90415,-1.64282,67.9627,6,0,0,0
0,1406072033,460372,12.7644,37.0948,2.15554,39.2887,-8.70439,-0.225009,3.437,9.36109,1.41084,1.89086,-1.56209,67.8933,7,0,0,0
0,1406072034,461373,12.242,36.9945,2.49657,39.0473,-8.69033,-0.253427,3.41862,9.34201,2.71683,1.68276,-2.31873,68.0097,7,0,0,0
0,1406072035,462379,12.4563,36.9833,2.29169,39.0919,-8.68802,-0.215754,3.43556,9.34512,1.57323,1.92066,-2.88443,67.9971,8,0,0,0
0,1406072036,463380,12.5577,36.6886,2.44117,38.8549,-8.69923,-0.203333,3.43048,9.3534,3.71733,3.23771,-1.30027,67.9528,8,0,0,0
0,1406072037,464382,12.5818,37.0531,2.28769,39.1979,-8.69945,-0.245589,3.39685,9.34234,2.2547,2.63558,-1.7167,67.9638,7,0,0,0
0,1406072038,465388,12.4957,36.739,2.64408,38.8958,-8.70628,-0.204158,3.4239,9.35757,2.09117,2.04436,-2.14706,67.9159,8,0,0,0
0,1406072039,466389,12.1343,37.206,2.43044,39.2101,-8.70313,-0.22332,3.4092,9.3497,1.87932,2.43,-1.85432,68.0313,7,0,0,0
0,1406072040,467390,12.5971,37.014,2.52291,39.1802,-8.70443,-0.211957,3.41215,9.35173,3.4006,2.11783,-1.60389,68.0282,8,0,0,0
0,1406072041,468396,12.3548,36.9014,2.53165,38.9969,-8.70715,-0.225873,3.44305,9.3659,2.86434,2.80013,-1.1553,68.1215,7,0,0,0
0,1406072042,469397,12.5247,36.8302,2.28771,38.9688,-8.72937,-0.238242,3.40639,9.37348,1.88321,2.24136,-1.18133,68.179,8,0,0,0
0,1406072043,470399,12.4787,37.0634,2.18013,39.1684,-8.71043,-0.21724,3.40987,9.3566,1.8,2.147,-1.27143,68.1761,7,0,0,0
0,1406072044,471407,12.4734,37.0167,2.13279,39.12,-8.72608,-0.22522,3.41356,9.37271,3.03916,1.62801,-1.98943,68.156,7,0,0,0
0,1406072045,472409,12.2605,37.2802,2.21011,39.3067,-8.7028,-0.227106,3.41686,9.35229,1.36564,3.07636,-1.06695,68.1958,8,0,0,0
0,1406072046,473411,12.2994,37.1807,2.11482,39.2192,-8.70239,-0.216052,3.43323,9.35763,1.86973,3.50736,-0.950169,68.1504,7,0,0,0
0,1406072047,474420,12.4969,36.9642,1.89775,39.0656,-8.72005,-0.211879,3.41403,9.36695,1.54333,2.32185,-0.184824,68.1917,8,0,0,0
0,1406072048,475426,12.313,36.7987,2.70964,38.8986,-8.69621,-0.236823,3.4386,9.35437,1.76087,2.14555,-1.4276,68.163,7,0,0,0
0,1406072049,476427,12.26,37.1661,2.20566,39.1981,-8.71116,-0.218225,3.42204,9.36175,2.92685,1.68577,-2.1079,68.2221,8,0,0,0
0,1406072050,477431,12.5535,36.9829,2.47875,39.134,-8.69018,-0.234358,3.42061,9.3421,2.89505,2.66292,-0.0776579,68.1999,8,0,0,0
0,1406072051,478433,12.1902,37.2148,2.20782,39.2227,-8.68734,-0.242608,3.41623,9.33806,2.93909,2.69268,-1.4451,68.201,8,0,0,0
0,1406072052,479437,12.3718,36.8881,2.72811,39.003,-8.70958,-0.249512,3.40964,9.35653,2.67326,2.05264,-1.51818,68.0661,8,0,0,0
0,1406072053,480443,12.637,37.1571,2.51659,39.3278,-8.72267,-0.220859,3.40681,9.36697,2.01281,1.65561,-1.25712,67.9552,7,0,0,0
0,1406072054,481445,12.4729,37.1413,2.49845,39.2593,-8.6932,-0.231203,3.41684,9.34344,3.77943,1.80133,-1.12676,67.882,8,0,0,0
0,1406072055,482453,12.6951,37.1954,2.56513,39.3859,-8.69326,-0.256637,3.41876,9.34487,1.51153,2.71172,-2.07947,67.8663,8,0,0,0
0,1406072056,483454,12.3999,37.1371,2.74237,39.2484,-8.72785,-0.23046,3.43199,9.38121,4.03855,0.48315,-1.87522,67.8933,8,0,0,0
0,1406072057,484461,12.7741,36.7752,2.24943,38.9956,-8.69322,-0.221391,3.42288,9.34544,2.79731,1.7711,-0.710765,67.8066,8,0,0,0
0,1406072058,485467,12.418,37.0444,1.87069,39.1151,-8.70187,-0.254854,3.42829,9.35632,1.51235,2.35457,-1.87273,67.7865,7,0,0,0
0,1406072059,486470,12.4559,37.1901,2.16649,39.2804,-8.70954,-0.238273,3.43162,9.36424,2.45158,1.53675,-2.52694,67.7878,8,0,0,0
0,1406072060,487471,12.5629,37.316,2.56347,39.4574,-8.70135,-0.207162,3.40867,9.34748,2.70381,2.13449,-0.271746,67.6447,8,0,0,0
0,1406072061,488478,12.546,37.0851,2.30408,39.2176,-8.71477,-0.236648,3.43435,9.37005,3.43248,2.41447,-1.14797,67.5346,7,0,0,0
0,1406072062,489482,12.3396,37.2029,2.32313,39.2647,-8.69034,-0.206448,3.40077,9.33434,4.19007,1.62382,-2.06144,67.5638,8,0,0,0
0,1406072063,490495,12.6257,37.2307,2.50425,39.393,-8.68384,-0.222545,3.40502,9.3302,3.86655,1.4221,-1.77415,67.6915,8,0,0,0
0,1406072064,491504,12.6884,36.6974,2.49027,38.9088,-8.71347,-0.227449,3.41594,9.36189,1.57068,2.06319,-3.06708,67.646,8,0,0,0
0,1406072065,492513,12.4664,37.0584,2.29721,39.1665,-8.70255,-0.233539,3.43214,9.3578,1.77323,2.50733,-1.85556,67.7142,8,0,0,0
0,1406072066,493519,12.6326,37.0759,2.31952,39.2375,-8.71237,-0.226527,3.43919,9.36935,1.6329,2.89469,-2.41414,67.7293,8,0,0,0
0,1406072067,494521,12.6788,37.2783,2.31608,39.4435,-8.71532,-0.202628,3.40876,9.36042,1.43336,2.70873,-2.14122,67.6033,8,0,0,0
0,1406072068,495524,12.3843,36.7532,2.66872,38.8753,-8.69443,-0.221247,3.40881,9.34142,2.2483,2.57632,-1.73776,67.7337,7,0,0,0
0,1406072069,496532,11.984,36.5925,2.51432,38.5869,-8.70856,-0.234371,3.39384,9.34945,3.79184,1.57636,-0.505922,67.6625,7,0,0,0
0,1406072070,497539,13.0769,37.1765,2.21421,39.4715,-8.7048,-0.238441,3.43316,9.36039,2.67585,2.66452,-0.483658,67.742,8,0,0,0
0,1406072071,498541,12.4962,37.195,2.45653,39.3148,-8.71273,-0.213599,3.40173,9.35569,3.20142,1.84836,-1.9274,67.7719,7,0,0,0
0,1406072072,499549,12.773,36.9771,2.68122,39.2128,-8.69804,-0.232519,3.41633,9.3478,2.18648,3.14105,-1.34303,67.6704,8,0,0,0
0,1406072073,500550,12.4589,37.3674,2.18849,39.4504,-8.71276,-0.24448,3.42271,9.36413,2.39546,2.4295,-0.4304,67.736,8,0,0,0
0,1406072074,501551,12.5328,37.2914,2.40541,39.4145,-8.70554,-0.207648,3.40945,9.35168,2.3226,1.7038,-1.87453,67.7105,7,0,0,0
0,1406072075,502559,12.6667,36.8994,2.24829,39.0777,-8.70924,-0.246576,3.43496,9.3654,2.30055,2.34595,-2.51177,67.4323,7,0,0,0
0,1406072076,503561,12.5276,37.2708,2.08919,39.3754,-8.71606,-0.212255,3.3951,9.35636,2.92853,3.57254,-1.6857,67.4809,6,0,0,0
0,1406072077,504570,12.6194,36.7062,2.29394,38.8825,-8.70075,-0.232122,3.41803,9.35093,3.44319,1.56604,-2.12537,67.5162,7,0,0,0
0,1406072078,505573,12.5556,36.8073,2.41204,38.9645,-8.71084,-0.237615,3.39853,9.35335,2.53775,2.29251,-1.94883,67.4599,7,0,0,0
0,1406072079,506574,12.8487,36.9341,2.5,39.185,-8.70026,-0.228022,3.44884,9.36168,2.65169,2.19037,-1.21192,67.4291,7,0,0,0
0,1406072080,507582,12.2559,37.0002,2.22343,39.0405,-8.704,-0.213801,3.40393,9.34838,2.75787,2.55416,-1.82722,67.3884,7,0,0,0
0,1406072081,508590,12.7579,36.9511,2.39904,39.1651,-8.70699,-0.22749,3.4014,9.35056,1.9977,1.32069,-1.87376,67.2038,8,0,0,0
0,1406072082,509592,12.5592,37.2684,2.36095,39.3985,-8.69756,-0.250424,3.39588,9.34036,2.8687,1.74045,-2.85869,67.2785,8,0,0,0
0,1406072083,510594,12.5843,36.6011,2.2684,38.7705,-8.70841,-0.223469,3.40861,9.35441,1.57811,1.90365,-1.16903,67.3134,7,0,0,0
0,1406072084,511601,12.3653,36.8392,2.53751,38.9419,-8.70818,-0.225618,3.41005,9.35477,2.80638,2.12056,-0.448009,67.2661,7,0,0,0
0,1406072085,512609,12.522,36.9348,2.48213,39.0786,-8.68525,-0.257198,3.41517,9.33612,2.03627,3.68002,-0.62914,67.1175,7,0,0,0
0,1406072086,513613,12.8134,37.01,2.54893,39.2482,-8.71841,-0.22045,3.41712,9.36674,1.68972,1.54064,-1.04383,67.2156,8,0,0,0
0,1406072087,514614,12.526,37.2165,2.45635,39.3447,-8.69434,-0.233821,3.40629,9.34072,3.24426,1.77073,-1.00914,67.2157,8,0,0,0
0,1406072088,515628,12.7217,36.7345,2.53699,38.9577,-8.72594,-0.217061,3.41563,9.37314,3.18423,2.6786,-1.51424,67.3075,8,0,0,0
0,1406072089,516631,12.483,37.3093,2.1996,39.4037,-8.72354,-0.22847,3.41969,9.37265,1.9211,1.59376,-1.15346,67.3209,8,0,0,0
0,1406072090,517637,12.5567,37.1647,2.36297,39.2998,-8.70196,-0.229374,3.41458,9.35073,3.0545,2.05109,-1.71203,67.299,7,0,0,0
0,1406072091,518644,12.6245,37.1815,2.5144,39.3468,-8.69079,-0.216444,3.43691,9.34821,2.29343,2.87618,-1.11881,67.4901,8,0,0,0
0,1406072092,519648,12.5187,37.1732,2.45021,39.301,-8.6976,-0.24938,3.42535,9.35113,3.32907,1.81842,-1.64383,67.3308,7,0,0,0
0,1406072093,520660,12.9835,37.3122,2.49704,39.5854,-8.71156,-0.210637,3.43931,9.36827,2.60805,2.94112,-1.78639,67.3773,8,0,0,0
0,1406072094,521668,12.6247,37.1981,2.29734,39.3492,-8.71472,-0.216385,3.44255,9.37254,3.0112,3.09659,-0.699987,67.3274,8,0,0,0
0,1406072095,522675,12.7165,37.0934,2.12703,39.2703,-8.70976,-0.237605,3.41563,9.35858,1.66678,1.89958,-1.12418,67.3741,8,0,0,0
0,1406072096,523682,12.4425,36.8902,2.56473,39.0164,-8.70339,-0.210921,3.40925,9.34967,3.19742,1.72454,-2.24005,67.4356,7,0,0,0
0,1406072097,524683,12.6563,37.0955,2.10713,39.2518,-8.71185,-0.214093,3.42523,9.36346,2.08739,3.32746,-1.41306,67.492,8,0,0,0
0,1406072098,525685,12.6225,36.9177,1.95813,39.0651,-8.69274,-0.223743,3.40648,9.33905,4.14591,2.18353,-0.0542627,67.6076,8,0,0,0
0,1406072099,526690,12.3159,37.0961,2.19335,39.1486,-8.70701,-0.234861,3.41065,9.35413,2.39963,3.63086,-0.855621,67.5643,7,0,0,0
0,1406072100,527694,12.6085,37.0453,2.32185,39.2011,-8.70901,-0.229395,3.40636,9.3543,3.27107,1.71983,-1.62453,67.7802,8,0,0,0
0,1406072101,528697,12.2456,37.0287,2.25742,39.0663,-8.71046,-0.233369,3.41133,9.35756,3.24999,2.54272,-2.07777,67.848,7,0,0,0
0,1406072102,529703,12.8978,36.8521,2.52484,39.1255,-8.69219,-0.219144,3.40639,9.3384,3.13196,2.58036,-2.05153,67.7848,7,0,0,0
0,1406072103,530715,12.6242,37.3043,2.35949,39.4531,-8.69653,-0.203556,3.42543,9.34905,2.0525,1.77712,-0.649642,67.8095,7,0,0,0
0,1406072104,531724,12.2046,37.04,2.53077,39.0809,-8.71287,-0.212524,3.43539,9.36809,2.67008,2.02676,-1.14729,67.7859,8,0,0,0
0,1406072105,532734,12.4404,37.228,2.55269,39.3345,-8.71719,-0.21778,3.42538,9.36857,2.3792,3.041,-1.66602,67.7477,8,0,0,0
0,1406072106,533739,12.4437,36.9616,2.3492,39.0708,-8.69945,-0.212396,3.41929,9.34971,2.61582,2.62874,-1.54737,67.6831,8,0,0,0
0,1406072107,534740,12.5489,36.953,2.25234,39.0905,-8.73319,-0.231496,3.42105,9.38221,2.51519,1.42171,-1.9421,67.4918,7,0,0,0
0,1406072108,535742,12.4747,37.044,2.05858,39.1422,-8.71564,-0.211038,3.40636,9.36003,1.31363,2.1671,-2.11401,67.5616,7,0,0,0
0,1406072109,536746,12.5228,36.8933,2.51613,39.0419,-8.69727,-0.223525,3.44723,9.35819,2.52098,2.76089,-1.84967,67.5398,8,0,0,0
0,1406072110,537748,12.5274,36.9083,2.53118,39.0585,-8.71141,-0.224904,3.41476,9.35948,3.63734,2.51235,-1.75967,67.5303,8,0,0,0
0,1406072111,538752,12.4291,36.8799,2.15681,38.9777,-8.69669,-0.254407,3.42039,9.34859,2.15787,2.40866,-1.79662,67.4269,7,0,0,0
0,1406072112,539753,12.2432,37.1054,2.21382,39.1357,-8.72386,-0.212953,3.43897,9.37964,1.75286,1.93467,-0.609245,67.4357,8,0,0,0
0,1406072113,540756,12.4296,37.0112,2.81443,39.1439,-8.70474,-0.242878,3.4552,9.36856,3.65245,3.06561,-0.445932,67.3266,7,0,0,0
0,1406072114,541758,12.7161,37.3073,2.58011,39.4993,-8.70368,-0.229585,3.4287,9.3575,3.8304,1.51089,-0.708539,67.2842,8,0,0,0
0,1406072115,542762,12.4747,36.88,2.44571,39.0094,-8.68837,-0.233605,3.43588,9.34599,3.27362,2.03373,-2.30963,67.1606,9,0,0,0
0,1406072116,543763,12.7476,36.7008,2.2286,38.9155,-8.69312,-0.220275,3.43265,9.3489,2.41653,3.03332,-1.21454,67.3136,8,0,0,0
0,1406072117,544769,12.7578,37.2166,2.5298,39.4238,-8.70933,-0.23261,3.42192,9.36035,2.1137,2.71317,-0.630925,67.225,7,0,0,0
0,1406072118,545777,12.302,36.9616,2.35672,39.0264,-8.72013,-0.219875,3.45045,9.38054,3.4398,1.23115,-1.55014,67.3898,7,0,0,0
0,1406072119,546783,12.4442,37.091,2.14494,39.1816,-8.72183,-0.245198,3.43241,9.37614,1.64643,1.79842,-1.80064,67.3443,7,0,0,0
0,1406072120,547785,12.5151,37.0576,2.43101,39.1893,-8.70759,-0.227977,3.41646,9.35662,3.32329,2.32151,-2.33052,67.2976,7,0,0,0
0,1406072121,548788,12.4358,37.1451,2.61823,39.2589,-8.69279,-0.244889,3.42945,9.34803,2.31077,3.32818,-0.754634,67.4696,7,0,0,0
0,1406072122,549795,12.7594,37.0585,2.71527,39.2875,-8.69987,-0.244499,3.41034,9.34761,1.24758,3.52851,-1.08985,67.3535,7,0,0,0
0,1406072123,550800,12.4093,37.1366,2.7687,39.2528,-8.71753,-0.233568,3.39772,9.35919,3.15213,1.68264,-2.65686,67.2707,7,0,0,0
0,1406072124,551805,12.6084,37.0726,2.16092,39.2176,-8.70245,-0.226167,3.39828,9.34516,2.61101,1.97802,-1.14037,67.2236,7,0,0,0
0,1406072125,552811,12.6773,37.1447,2.19653,39.3099,-8.70216,-0.235201,3.43256,9.35764,3.57011,2.39068,-0.700977,67.1767,8,0,0,0
0,1406072126,553814,12.6882,37.2076,2.20631,39.3734,-8.70308,-0.240613,3.40815,9.3497,2.86813,2.9653,-1.34419,67.231,7,0,0,0
0,1406072127,554815,12.4251,36.9847,2.69915,39.1093,-8.72939,-0.230803,3.42838,9.38133,1.83478,2.32342,-1.4076,67.28,8,0,0,0
0,1406072128,555821,12.4547,36.9614,2.26325,39.069,-8.6913,-0.225269,3.42893,9.34596,2.82172,2.11845,-1.27429,67.1394,8,0,0,0
0,1406072129,556826,12.4967,37.4586,2.27215,39.5535,-8.70618,-0.223308,3.36136,9.33521,0.760649,1.57159,-0.408676,67.3352,8,0,0,0
0,1406072130,557828,12.56,37.1311,2.46396,39.2752,-8.70762,-0.244731,3.43455,9.36369,2.15912,1.58898,-1.07499,67.2443,8,0,0,0
0,1406072131,558837,12.5613,36.8995,2.56144,39.063,-8.69447,-0.249851,3.43989,9.35356,3.45442,2.19611,-1.56262,67.2747,8,0,0,0
0,1406072132,559843,12.5978,37.2425,2.1077,39.3719,-8.70083,-0.25012,3.43898,9.35914,1.11311,1.86349,-0.189004,67.3585,8,0,0,0
0,1406072133,560847,12.6321,36.9354,2.07016,39.0906,-8.70107,-0.223431,3.46388,9.36787,2.43676,2.04254,-2.04378,67.3414,6,0,0,0
0,1406072134,561848,12.1493,36.9211,2.65629,38.9593,-8.70925,-0.218087,3.4383,9.36592,2.1122,2.42462,-1.94002,67.3028,8,0,0,0
0,1406072135,562851,12.649,36.9267,2.50525,39.1134,-8.67355,-0.243478,3.3856,9.31408,1.70421,2.41807,-2.45093,67.3328,7,0,0,0
0,1406072136,563858,12.4347,37.127,2.10466,39.2105,-8.68473,-0.249609,3.42715,9.33981,1.45669,1.49573,-1.32695,67.3742,8,0,0,0
0,1406072137,564863,12.3469,37.3835,2.30504,39.4371,-8.6851,-0.25335,3.43378,9.34269,2.30239,2.87607,-2.3407,67.3065,7,0,0,0
0,1406072138,565865,12.2232,36.8791,2.66882,38.9435,-8.70056,-0.186138,3.40808,9.3461,2.53823,1.79377,-1.19228,67.5031,8,0,0,0
0,1406072139,566870,12.6587,37.0488,2.30671,39.2196,-8.71956,-0.220256,3.40956,9.36506,2.47831,2.96672,-1.28573,67.4781,9,0,0,0
0,1406072140,567873,12.4044,36.93,2.15162,39.017,-8.70209,-0.218961,3.42333,9.3538,2.37348,2.36469,-0.646575,67.4992,7,0,0,0
0,1406072141,568881,12.4798,37.2871,2.51974,39.4008,-8.71806,-0.226636,3.41772,9.36679,1.88804,2.03607,-1.61186,67.5262,8,0,0,0
0,1406072142,569886,12.4771,37.3647,2.33319,39.4619,-8.71533,-0.238349,3.43611,9.37127,2.65414,2.59651,-1.53412,67.5542,6,0,0,0
0,1406072143,570888,12.5219,36.8244,2.50679,38.9758,-8.69635,-0.23476,3.44863,9.35813,3.3844,1.91719,-0.69063,67.588,8,0,0,0
0,1406072144,571890,12.7174,36.8014,2.12736,38.9949,-8.69171,-0.231023,3.40562,9.33796,2.32176,2.05619,-0.749333,67.5501,7,0,0,0
0,1406072145,572900,12.5134,37.2586,2.60718,39.3902,-8.71237,-0.208943,3.42207,9.36267,2.59267,3.34063,-0.691358,67.6183,7,0,0,0
0,1406072146,573907,12.6362,36.975,2.26982,39.1405,-8.69484,-0.246568,3.40714,9.34182,2.35756,1.94429,-1.79681,67.6155,8,0,0,0
0,1406072147,574909,12.3757,37.0814,2.60434,39.1787,-8.71387,-0.205941,3.43152,9.36746,3.12522,1.33308,-0.311851,67.6084,7,0,0,0
0,1406072148,575910,12.6983,37.0895,2.45364,39.2798,-8.71134,-0.211304,3.41253,9.35828,2.38049,3.59097,-1.42779,67.7207,8,0,0,0
0,1406072149,576916,12.3641,36.8965,2.18858,38.9745,-8.71211,-0.224925,3.4387,9.3689,2.0959,2.73729,-0.602502,67.666,8,0,0,0
0,1406072150,577917,12.5827,36.7828,2.34617,38.9462,-8.70802,-0.233396,3.43946,9.36557,2.06535,2.48648,-4.14261,67.5541,7,0,0,0
0,1406072151,578922,12.5298,37.0327,2.07825,39.1502,-8.71712,-0.222219,3.43937,9.37373,1.98551,1.36584,-1.45969,67.5475,9,0,0,0
0,1406072152,579927,12.4455,36.6689,2.40111,38.7977,-8.70381,-0.247181,3.38963,9.34382,2.733,2.59082,-1.53496,67.6397,6,0,0,0
0,1406072153,580931,12.4526,37.0315,2.42147,39.1442,-8.70965,-0.187815,3.41087,9.3556,2.00955,2.73641,-1.14889,67.4996,8,0,0,0
0,1406072154,581938,12.3999,36.5709,2.56805,38.7012,-8.72971,-0.268854,3.44245,9.38779,2.73523,1.47381,-0.728911,67.5472,7,0,0,0
0,1406072155,582950,13.6387,36.7377,3.14417,39.3136,-8.71089,-0.264307,3.35702,9.33912,2.19272,1.2477,-2.05316,67.4563,8,0,0,0
0,1406072156,583954,12.739,37.2798,2.45,39.4724,-8.733,-0.214759,3.38974,9.37026,1.20994,2.01761,-1.02007,67.3005,8,0,0,0
0,1406072157,584960,12.4087,37.0976,2.42829,39.1932,-8.70702,-0.231825,3.4203,9.35758,1.28739,1.61363,-1.05667,67.4022,6,0,0,0
0,1406072158,585961,12.6813,36.8392,2.41223,39.0354,-8.70192,-0.217037,3.41353,9.35001,1.46966,2.0271,-1.91741,67.3067,7,0,0,0
0,1406072159,586964,12.4082,37.1885,2.31684,39.2723,-8.71573,-0.249246,3.41128,9.36285,2.86702,1.94545,-0.853658,67.1946,7,0,0,0
0,1406072160,587970,12.4039,37.0758,2.4685,39.1736,-8.72812,-0.221764,3.42332,9.37808,2.6238,1.77922,-0.0720295,67.2628,7,0,0,0
0,1406072161,588971,12.4272,36.6962,2.52915,38.8258,-8.69501,-0.215388,3.4016,9.33918,2.66349,2.20069,-1.26061,67.1042,7,0,0,0
0,1406072162,589976,12.4001,37.0237,2.32442,39.1141,-8.70893,-0.204668,3.41782,9.35782,2.0714,2.38053,-1.74494,67.004,7,0,0,0
0,1406072163,590985,12.4094,37.2762,2.12163,39.3447,-8.70073,-0.219627,3.40995,9.34766,3.59556,2.34595,-0.531681,67.0122,8,0,0,0
0,1406072164,591990,12.3535,36.928,2.30239,39.0075,-8.70412,-0.241639,3.4405,9.36254,2.43502,1.73948,-1.67724,67.0248,6,0,0,0
0,1406072165,592995,12.4825,36.9632,2.30226,39.0819,-8.70696,-0.234105,3.42676,9.35995,2.73738,2.10891,-0.916821,66.9843,8,0,0,0
0,1406072167,594003,12.442,36.9131,2.06827,39.0084,-8.6899,-0.227987,3.4074,9.33685,1.82755,2.30385,-2.24098,67.0185,7,0,0,0
0,1406072168,595008,12.5373,36.8235,2.49199,38.979,-8.70896,-0.229747,3.43548,9.3649,2.28492,2.34161,-1.77356,67.0289,6,0,0,0
0,1406072169,596016,12.3705,36.9732,2.33584,39.0577,-8.68969,-0.230207,3.43342,9.34623,3.20149,1.9153,-1.72826,66.988,7,0,0,0
0,1406072170,597020,12.2702,36.6834,2.49063,38.7613,-8.71085,-0.209158,3.41768,9.35966,3.17274,1.84372,-1.58573,66.9425,7,0,0,0
0,1406072171,598027,12.5156,37.0495,2.67658,39.1978,-8.70948,-0.226804,3.4147,9.35771,3.0809,2.19228,-2.32412,66.9579,6,0,0,0
0,1406072172,599034,12.861,37.0248,2.36114,39.266,-8.6976,-0.226075,3.42404,9.35005,2.1692,2.87797,-1.33089,66.9019,7,0,0,0
0,1406072173,600042,12.2259,36.7729,2.29683,38.82,-8.69344,-0.228193,3.40456,9.33911,3.22923,1.22844,-1.46477,67.084,8,0,0,0
0,1406072174,601044,12.9444,36.6876,2.68227,38.9965,-8.70277,-0.235657,3.39478,9.34443,2.7067,1.98599,-2.43979,67.1127,7,0,0,0
0,1406072175,602047,12.6295,37.3284,3.12314,39.5306,-8.72489,-0.238292,3.40849,9.37007,3.38787,2.0588,-2.93108,67.0026,8,0,0,0
0,1406072176,603049,12.6518,36.8154,2.68347,39.0211,-8.74398,-0.190556,3.43762,9.39738,2.54591,2.97964,-0.64457,67.1255,8,0,0,0
0,1406072177,604052,12.599,37.1266,2.23162,39.2696,-8.69405,-0.256156,3.42122,9.34649,2.80487,1.54033,-0.683816,67.2181,7,0,0,0
0,1406072178,605054,12.5264,36.9627,2.62534,39.1158,-8.70118,-0.220605,3.44972,9.36269,1.95239,1.80884,-1.4492,67.157,8,0,0,0
0,1406072179,606055,12.1635,36.8882,2.43352,38.918,-8.7017,-0.223408,3.42001,9.35232,1.15006,2.01925,-1.69518,67.0946,7,0,0,0
0,1406072180,607065,12.6953,36.9353,2.42406,39.1313,-8.71369,-0.245386,3.43397,9.36914,2.24269,3.51472,-1.39724,67.095,8,0,0,0
0,1406072181,608066,12.3246,36.7874,2.30066,38.8652,-8.69665,-0.229125,3.43488,9.35322,1.71059,0.774634,-1.72424,67.2872,8,0,0,0
0,1406072182,609073,12.3843,37.0511,2.43166,39.1417,-8.72232,-0.229704,3.40789,9.36725,1.73673,1.86532,-1.31613,67.2424,8,0,0,0
0,1406072183,610080,12.668,36.9915,2.44402,39.1769,-8.69632,-0.226474,3.37626,9.33147,3.08595,3.92876,-1.36023,67.2539,8,0,0,0
0,1406072184,611082,12.5093,37.3658,2.51799,39.4845,-8.68777,-0.248789,3.41422,9.33789,2.03096,1.65246,-1.68742,67.1528,7,0,0,0
0,1406072185,612086,12.764,36.8427,2.49603,39.0709,-8.7155,-0.232261,3.43241,9.36992,2.50202,1.96944,-0.721791,67.1723,8,0,0,0
0,1406072186,613091,12.8364,37.1685,2.59462,39.4082,-8.69509,-0.222202,3.44606,9.35571,2.77235,2.05628,-1.90588,67.2467,7,0,0,0
0,1406072187,614096,12.6228,36.9531,2.53652,39.1319,-8.71864,-0.264778,3.42292,9.37023,2.18705,1.6131,-0.934195,67.0841,8,0,0,0
0,1406072188,615101,12.5635,37.0357,2.36833,39.1803,-8.70217,-0.303838,3.3843,9.34204,2.54643,2.25134,-1.3154,67.2295,8,0,0,0
0,1406072189,616102,12.7013,36.9521,2.66512,39.1648,-8.74982,-0.129313,3.45689,9.40883,1.37587,1.95255,-1.50396,67.1133,7,0,0,0
0,1406072190,617106,12.6284,37.2192,2.49784,39.3825,-8.71124,-0.232049,3.41545,9.35975,1.89767,2.268,-2.34869,67.1626,7,0,0,0
0,1406072191,618114,12.1825,37.18,2.36615,39.1965,-8.71498,-0.263186,3.42223,9.36652,1.81594,2.5846,-2.44019,67.2563,7,0,0,0
0,1406072192,619120,12.4853,36.97,2.41385,39.096,-8.68928,-0.263574,3.41418,9.33968,2.9742,2.68022,-2.62735,67.1704,8,0,0,0
0,1406072193,620127,12.6632,37.1398,2.51371,39.3198,-8.69689,-0.037676,3.44135,9.35309,3.16731,2.56896,-2.26039,67.2388,8,0,0,0
0,1406072194,621129,12.5394,36.9061,2.46024,39.0557,-8.70124,-0.324589,3.43371,9.35987,2.34593,1.88835,-1.63058,67.2531,7,0,0,0
0,1406072195,622134,12.5462,36.899,2.16357,39.0336,-8.70666,-0.198476,3.45167,9.368,2.93506,1.27885,-1.36353,67.1525,8,0,0,0
0,1406072196,623140,12.5782,36.6947,2.35659,38.8621,-8.71404,-0.239509,3.42344,9.36545,2.60242,2.09338,-0.0411137,67.2435,7,0,0,0
0,1406072197,624143,12.4472,37.0592,2.10026,39.15,-8.69737,-0.243611,3.40524,9.34341,3.0696,2.56598,-0.824479,67.1217,8,0,0,0
0,1406072198,625144,12.5899,37.0031,2.18886,39.1474,-8.74923,-0.172876,3.44702,9.40536,1.38432,0.855428,-2.00492,67.1523,7,0,0,0
0,1406072199,626149,12.5566,36.9102,2.76073,39.0852,-8.72003,-0.234384,3.41175,9.36663,1.76854,2.83026,-1.55947,67.1722,8,0,0,0
0,1406072200,627157,12.4564,37.1115,2.71279,39.2401,-8.71005,-0.231351,3.42369,9.36163,2.50062,2.13957,-0.937078,67.2754,8,0,0,0
0,1406072201,628164,12.5675,36.8074,2.66277,38.9849,-8.69319,-0.253798,3.45804,9.35917,2.60884,2.58994,-2.63902,67.0815,7,0,0,0
0,1406072202,629168,12.5828,36.9893,2.3976,39.1444,-8.69444,-0.249206,3.40614,9.34115,1.9574,1.72795,-1.53563,67.032,8,0,0,0
0,1406072203,630176,12.8386,36.9434,2.63604,39.1994,-8.68893,-0.26154,3.4435,9.35006,0.80678,2.95645,-0.914017,66.9939,7,0,0,0
0,1406072204,631181,12.6702,37.3232,2.57299,39.4991,-8.70829,-0.147711,3.4061,9.35187,3.19155,2.13722,-1.64021,67.0686,7,0,0,0
0,1406072205,632182,12.9317,37.0278,2.57964,39.3057,-8.69093,-0.238565,3.4304,9.34649,3.00362,1.84933,-1.09451,67.119,8,0,0,0
0,1406072206,633187,12.4893,36.8828,2.8929,39.0473,-8.70654,-0.248538,3.44056,9.36499,2.00073,2.97377,-1.85076,67.1772,8,0,0,0
0,1406072207,634189,12.3587,36.7262,2.49543,38.8301,-8.75355,-0.343224,3.35214,9.37973,2.48954,1.72576,-0.981698,67.2006,8,0,0,0
0,1406072208,635191,12.4883,36.9304,2.2482,39.0495,-8.70545,-0.239721,3.41061,9.35278,2.00305,3.877,-0.981006,67.3995,7,0,0,0
0,1406072209,636197,12.4673,36.7987,2.38691,38.9265,-8.71114,-0.260894,3.39241,9.35203,2.40993,1.3112,-0.53468,67.3174,7,0,0,0
0,1406072210,637201,12.8901,36.9619,2.46026,39.2223,-8.67826,-0.198592,3.44637,9.33966,1.28424,1.18255,-2.85178,67.3634,8,0,0,0
0,1406072211,638207,12.8966,37.0587,2.36989,39.3101,-8.68668,-0.262629,3.42222,9.34018,3.90597,2.04698,-1.9406,67.459,7,0,0,0
0,1406072212,639210,12.7711,36.6953,2.58928,38.9403,-8.72472,-0.22806,3.41682,9.3727,1.74428,2.15803,-2.28728,67.571,8,0,0,0
0,1406072213,640217,12.7228,37.0042,2.52809,39.2119,-8.70308,-0.119396,3.4824,9.3747,2.09166,2.74207,-0.864264,67.5845,6,0,0,0
0,1406072214,641236,12.9035,36.7103,2.5458,38.9952,-8.75786,-0.31815,3.37094,9.3896,1.25025,2.7459,-0.813324,67.7144,7,0,0,0
0,1406072215,642237,12.4718,37.2449,2.26765,39.343,-8.72092,-0.231532,3.31777,9.33358,1.38513,2.66819,-2.04719,67.6781,7,0,0,0
0,1406072216,643240,12.6149,37.0429,2.32888,39.2012,-8.7206,-0.342995,3.34659,9.34698,2.27406,2.86334,-1.00665,67.5553,8,0,0,0
0,1406072217,644249,12.5861,37.036,2.35128,39.1868,-8.71822,-0.250699,3.36921,9.34997,0.282097,1.91884,-2.52331,67.6866,8,0,0,0
0,1406072218,645254,12.5741,36.9818,2.18618,39.1221,-8.69624,-0.256233,3.42197,9.3488,0.97521,2.04744,-1.4995,67.6017,7,0,0,0
0,1406072219,646263,12.6259,36.8887,2.30089,39.0575,-8.72297,-0.22295,3.42214,9.37289,3.46052,1.90723,-1.98992,67.5614,8,0,0,0
0,1406072220,647267,12.6887,36.7069,2.665,38.9294,-8.70091,-0.137137,3.42265,9.35089,2.54456,2.44481,-0.672359,67.7149,7,0,0,0
0,1406072221,648269,12.637,36.9766,2.68228,39.1683,-8.7151,-0.25295,3.34894,9.33983,2.30028,1.88152,-2.36653,67.6782,7,0,0,0
0,1406072222,649274,12.4573,37.2323,2.64651,39.3501,-8.69528,-0.304322,3.47165,9.36765,2.47472,1.9037,-0.345813,67.6542,8,0,0,0
0,1406072223,650281,12.5877,36.9613,2.29658,39.1135,-8.67079,-0.23636,3.43205,9.32832,2.71531,3.11748,-1.4283,67.5738,8,0,0,0
0,1406072224,651286,13.0713,36.7661,2.52637,39.1023,-8.74632,-0.256372,3.37108,9.37699,3.30851,2.50027,-1.46236,67.6116,8,0,0,0
0,1406072225,652292,12.3404,36.9,2.41363,38.9836,-8.68699,-0.214483,3.42085,9.33873,2.28704,2.02978,-1.57749,67.4808,8,0,0,0
0,1406072226,653297,12.455,36.9133,2.57228,39.0427,-8.70925,-0.184911,3.40634,9.35353,1.89603,3.30655,-0.413029,67.5228,8,0,0,0
0,1406072227,654304,12.5162,37.0662,2.96963,39.2349,-8.69226,-0.145576,3.43742,9.34839,1.3597,3.40753,-1.37146,67.5061,7,0,0,0
0,1406072228,655310,12.6494,36.6975,2.25566,38.8819,-8.68796,-0.27196,3.47209,9.36002,2.6497,1.83581,-0.960579,67.596,7,0,0,0
0,1406072229,656315,12.2063,37.1251,2.21927,39.1433,-8.70181,-0.217109,3.42807,9.35523,2.69388,3.6105,-1.5971,67.4636,7,0,0,0
0,1406072230,657318,12.6825,37.1857,2.2199,39.3516,-8.69795,-0.201195,3.40755,9.34378,1.33063,1.48213,-2.63042,67.3899,7,0,0,0
0,1406072231,658326,12.3477,36.8189,2.09051,38.8905,-8.73763,-0.247006,3.34644,9.3598,2.52266,1.63862,-2.7553,67.2923,8,0,0,0
0,1406072232,659331,12.5387,36.8743,2.36748,39.0197,-8.71314,-0.21945,3.40076,9.35586,3.23976,2.41432,-0.79474,67.3577,8,0,0,0
0,1406072233,660334,12.6014,36.9137,2.32734,39.0747,-8.70892,-0.206075,3.4572,9.37229,1.11813,1.73556,-1.95497,67.345,7,0,0,0
0,1406072234,661339,12.2911,36.5808,2.26272,38.6568,-8.684,-0.228715,3.39872,9.32821,3.07627,2.6337,-1.98385,67.3562,8,0,0,0
0,1406072235,662340,12.4824,36.6925,2.54346,38.8409,-8.75416,-0.22301,3.43329,9.40598,2.73937,1.80318,-1.07855,67.4193,7,0,0,0
0,1406072236,663347,12.6701,37.1031,2.35068,39.2772,-8.69252,-0.221366,3.42415,9.34525,2.29979,1.09119,-1.11265,67.5301,8,0,0,0
0,1406072237,664352,12.5237,36.8983,2.67716,39.0576,-8.70245,-0.243463,3.4591,9.36788,1.63277,2.19384,-1.38997,67.5211,7,0,0,0
0,1406072238,665358,12.5165,36.8576,2.32667,38.9944,-8.6867,-0.249063,3.39426,9.32962,1.95895,2.17652,-0.101016,67.5438,8,0,0,0
0,1406072239,666363,12.6581,36.762,2.41299,38.955,-8.61196,-0.346397,3.548,9.32063,2.06803,1.50329,-0.317243,67.4876,7,0,0,0
0,1406072240,667365,12.7167,36.8222,2.61676,39.0441,-8.54718,0.0410738,3.60782,9.27751,1.93871,4.11075,-1.47381,67.4224,8,0,0,0
0,1406072241,668377,13.048,36.6529,2.32077,38.9753,-8.76387,-0.0795221,3.47725,9.42884,1.84773,3.1398,-0.694071,67.3512,8,0,0,0
0,1406072242,669381,13.3709,36.8132,2.40773,39.2402,-8.47791,-0.0248584,3.84827,9.31047,-1.02007,2.46502,-0.499054,67.3553,7,0,0,0
0,1406072243,670388,13.8193,36.8621,2.07483,39.422,-8.64961,-0.311536,3.54741,9.35398,-3.45793,1.65773,1.12313,67.4562,8,0,0,0
0,1406072244,671389,15.1701,36.8244,1.80492,39.8676,-8.7508,-0.268026,3.54228,9.44437,-3.07254,1.93151,1.01273,67.2181,7,0,0,0
0,1406072245,672399,15.9411,36.4126,1.53432,39.7787,-8.45691,-0.575751,3.42476,9.1422,0.0961625,0.8323,-0.239024,67.2274,9,0,0,0
0,1406072246,673400,15.9118,36.7122,1.54264,40.0418,-8.53909,-0.216223,3.72977,9.32062,3.60177,1.65237,-2.28552,67.1736,7,0,0,0
0,1406072247,674404,15.5607,36.7527,1.49515,39.9391,-8.56665,-0.187065,3.75899,9.35695,0.695943,1.21383,0.68381,67.2197,7,0,0,0
0,1406072248,675405,15.7241,36.515,1.21709,39.7753,-8.58332,-0.351261,3.51712,9.28261,4.99834,1.02131,-2.38332,67.0917,8,0,0,0
0,1406072249,676411,15.3811,36.5973,1.24926,39.7178,-8.71046,-0.145286,3.43304,9.36371,4.02951,2.63153,-1.34706,67.1127,7,0,0,0
0,1406072250,677423,14.9514,36.747,1.14451,39.6887,-8.60502,-0.347018,3.67595,9.36373,2.12556,1.84385,-0.9534,67.0302,7,0,0,0
0,1406072251,678428,15.0834,36.8783,1.09962,39.8589,-8.3873,-0.274449,3.46412,9.07867,3.62797,0.977866,-3.06544,67.0299,8,0,0,0
0,1406072252,679433,14.6044,36.5899,1.57813,39.4284,-8.59255,-0.189867,3.43535,9.25578,5.30598,2.88621,-4.17128,66.98,7,0,0,0
0,1406072253,680437,14.3709,36.5537,1.02513,39.2905,-8.62192,-0.0728417,3.4311,9.27983,2.06397,2.05459,-1.22876,66.9431,8,0,0,0
0,1406072254,681439,14.203,36.5985,1.17745,39.2754,-8.56585,-0.308547,3.58689,9.29166,1.79693,2.7345,-2.44758,67.061,8,0,0,0
0,1406072255,682444,14.3309,36.6605,1.62504,39.3956,-8.46455,-0.356688,3.53222,9.17891,1.7484,1.24162,-1.44027,67.0837,8,0,0,0
0,1406072256,683451,14.237,36.5687,1.29852,39.2639,-8.71675,-0.136899,3.65174,9.45175,3.40394,2.34233,-1.99316,67.017,7,0,0,0
0,1406072257,684458,14.7455,36.8467,1.4245,39.7132,-8.69525,-0.261618,3.46305,9.36314,2.09035,2.44747,-1.48277,67.1024,7,0,0,0
0,1406072258,685462,14.2961,36.9513,1.77512,39.6602,-8.67702,-0.358355,3.60835,9.40422,2.15985,2.94607,-1.74235,67.0743,7,0,0,0
0,1406072259,686468,14.5535,36.5861,1.34697,39.3975,-8.62035,-0.247665,3.69246,9.38116,0.677432,1.95383,-2.08973,67.2379,6,0,0,0
0,1406072260,687474,14.2565,36.7837,1.70949,39.4868,-8.70961,-0.353114,3.50957,9.39676,1.63343,2.3139,-2.3094,67.2017,7,0,0,0
0,1406072261,688480,14.0939,36.8689,1.62769,39.5044,-8.60983,-0.547641,3.41725,9.27937,1.54303,2.87924,-0.228657,67.113,7,0,0,0
0,1406072262,689487,13.9164,37.0067,1.47759,39.5644,-8.56349,-0.349261,3.55371,9.27815,3.716,0.716107,-1.97677,66.9978,7,0,0,0
0,1406072263,690490,13.906,36.694,1.73471,39.279,-8.66178,-0.187882,3.59201,9.37893,2.86956,2.56467,-0.519729,67.0034,8,0,0,0
0,1406072264,691499,13.6754,36.786,1.17385,39.2633,-8.46504,-0.374293,3.44992,9.14871,3.9379,2.33527,-2.19104,66.923,7,0,0,0
0,1406072265,692503,13.5051,37.0414,2.06652,39.4807,-8.62715,-0.266142,3.58647,9.34673,5.63024,1.72549,-1.76564,67.0214,8,0,0,0
0,1406072266,693504,13.4729,36.9307,1.12747,39.3277,-8.64611,-0.170475,3.39641,9.29085,1.94378,2.34367,-0.968839,66.9226,7,0,0,0
0,1406072267,694509,13.9402,36.6374,1.62553,39.2335,-8.81231,-0.366566,3.41009,9.45621,1.47938,1.51473,-1.07926,66.8988,8,0,0,0
0,1406072268,695518,14.3832,36.6574,1.46211,39.4053,-8.70996,-0.156642,3.58472,9.42009,2.54668,2.17505,-0.677553,66.9443,8,0,0,0
0,1406072269,696519,14.2939,36.6743,1.27765,39.3822,-8.44929,-0.132511,3.12253,9.00879,1.58416,1.47282,-1.06726,67.083,7,0,0,0
0,1406072270,697521,14.6127,36.9518,1.03821,39.7498,-8.70983,-0.230901,3.19305,9.27955,1.4998,3.04933,-3.17496,67.0358,8,0,0,0
0,1406072271,698527,14.4336,36.5798,0.899113,39.3347,-8.6597,-0.23367,3.44025,9.32096,2.2251,1.87993,0.439116,66.8935,7,0,0,0
0,1406072272,699528,13.7086,36.8753,1.6591,39.376,-8.67084,-0.226774,3.32054,9.28767,6.5245,0.976897,2.42614,67.0413,7,0,0,0
0,1406072273,700536,13.7346,36.5993,1.43112,39.1177,-8.91253,0.267181,3.49188,9.5759,2.37666,0.522478,0.793754,66.8488,7,0,0,0
0,1406072274,701540,14.0086,36.4599,1.58736,39.0907,-8.7332,0.222758,3.41696,9.38051,2.0851,2.34099,-1.81711,66.987,7,0,0,0
0,1406072275,702547,14.1483,36.4883,1.5978,39.1679,-9.1023,-0.817775,3.4379,9.76421,4.3608,3.64222,-5.89956,67.0715,8,0,0,0
0,1406072276,703555,13.7279,36.2508,1.10326,38.7788,-8.5434,-0.168763,3.38022,9.18934,4.63476,1.4325,-2.67667,66.9988,7,0,0,0
0,1406072277,704562,13.4354,36.4303,1.71764,38.8667,-8.68244,-0.0567049,3.33391,9.3007,1.76207,2.37391,-2.09308,66.88,9,0,0,0
0,1406072278,705566,13.1361,36.4737,1.46194,38.7947,-8.66664,-0.300981,3.51086,9.35561,1.91864,2.00541,-2.38041,66.9652,8,0,0,0
0,1406072279,706579,12.9543,36.5767,1.33092,38.8257,-8.63583,-0.3575,3.56694,9.35032,3.1184,2.33939,-1.57094,67.0121,8,0,0,0
0,1406072280,707582,13.1234,36.3102,1.65644,38.6445,-8.66803,-0.330569,3.44281,9.33258,2.10551,0.979381,-2.53781,66.9808,7,0,0,0
0,1406072281,708585,13.0293,36.4528,1.70581,38.7489,-8.6746,-0.307158,3.42932,9.33291,2.78262,1.31775,-1.32125,67.0746,7,0,0,0
0,1406072282,709591,12.8114,36.4885,1.50673,38.7015,-8.67482,-0.316501,3.45436,9.34265,1.56384,2.32377,-1.51162,67.0058,8,0,0,0
0,1406072283,710592,13.0307,36.4311,1.45915,38.7189,-8.69893,-0.340775,3.42434,9.35487,3.31843,1.52041,-0.497296,66.991,7,0,0,0
0,1406072284,711599,12.904,36.3082,1.62883,38.5675,-8.67061,-0.301956,3.45437,9.33827,2.7896,2.40751,-0.554281,67.032,8,0,0,0
0,1406072285,712604,13.0885,36.2753,1.50268,38.5936,-8.68998,-0.311937,3.45618,9.35726,2.30858,2.87905,-1.10292,67.0052,7,0,0,0
0,1406072286,713610,12.9556,36.3359,1.59092,38.6093,-8.68962,-0.287026,3.45808,9.35683,2.00093,1.39983,-2.2423,66.9305,7,0,0,0
0,1406072287,714611,12.86,36.3553,1.56421,38.5945,-8.68564,-0.331712,3.5065,9.37262,3.14077,2.54887,-1.19063,66.9599,7,0,0,0
0,1406072288,715621,13.1769,36.4707,1.66579,38.8139,-8.68263,-0.301393,3.45117,9.34823,1.39513,2.50558,-1.28229,67.0346,7,0,0,0
0,1406072289,716631,13.2128,36.3596,1.61319,38.7195,-8.68551,-0.320365,3.4593,9.35455,2.7241,1.22453,-2.58441,67.0251,8,0,0,0
0,1406072290,717633,13.1182,36.4522,1.65462,38.7762,-8.68774,-0.322147,3.48332,9.36558,2.91271,2.37405,-1.8591,67.0039,6,0,0,0
0,1406072291,718634,13.2994,36.4713,1.65037,38.8555,-8.65476,-0.323956,3.48549,9.33587,1.94458,1.0222,-2.05376,67.1075,7,0,0,0
0,1406072292,719641,12.9682,36.3981,1.45916,38.6669,-8.67442,-0.318838,3.46255,9.3454,2.88175,2.86027,-1.4777,67.0115,7,0,0,0
0,1406072293,720647,13.0149,36.2884,1.74294,38.5911,-8.7038,-0.318338,3.47971,9.37901,2.43574,3.11431,-1.2718,67.1924,8,0,0,0
0,1406072294,721653,13.1999,36.0864,1.62721,38.4593,-8.65941,-0.312206,3.45372,9.32797,2.83635,2.72896,-1.688,67.2922,7,0,0,0
0,1406072295,722656,12.9994,36.5703,1.78781,38.8532,-8.69733,-0.293618,3.46838,9.368,3.2468,1.68303,-0.267225,67.1963,8,0,0,0
0,1406072296,723657,13.1491,36.3639,1.46732,38.696,-8.68142,-0.320701,3.4697,9.35461,2.00711,1.83724,-1.74022,67.2707,8,0,0,0
0,1406072297,724661,13.0266,36.1512,1.24439,38.4467,-8.68111,-0.263648,3.5003,9.36394,2.10909,2.23645,-1.40067,67.1788,8,0,0,0
0,1406072298,725663,13.189,36.328,1.33943,38.6712,-8.68177,-0.341469,3.46829,9.35515,3.13097,2.97148,-1.77744,67.1453,8,0,0,0
0,1406072299,726669,12.9716,35.9844,1.44647,38.2783,-8.70037,-0.310256,3.49092,9.37973,2.40667,2.03709,-2.88574,67.0557,8,0,0,0
0,1406072300,727677,12.9727,36.0907,1.36043,38.3756,-8.68805,-0.321347,3.44673,9.3523,1.98401,2.51299,-0.636473,67.1606,7,0,0,0
0,1406072301,728683,13.2364,36.1443,1.39701,38.5171,-8.69354,-0.315645,3.46847,9.36523,1.98482,1.72446,-1.6723,67.0973,7,0,0,0
0,1406072302,729687,13.0331,36.0601,1.52009,38.3732,-8.71535,-0.304044,3.51488,9.40235,2.40202,2.50842,-0.846827,67.2311,7,0,0,0
0,1406072303,730691,12.9122,36.2687,1.61486,38.5324,-8.70373,-0.310135,3.49832,9.38559,1.88358,2.54523,-1.12707,67.2148,8,0,0,0
0,1406072304,731694,13.1396,36.2312,1.62272,38.5743,-8.6656,-0.305856,3.4666,9.33828,1.74945,1.83279,-1.10553,67.2734,6,0,0,0
0,1406072305,732699,12.9107,36.2354,1.48361,38.4953,-8.67342,-0.327036,3.47414,9.34906,2.23436,1.97241,-1.00434,67.2191,7,0,0,0
0,1406072306,733700,12.8042,36.1544,1.50604,38.3843,-8.67406,-0.29055,3.46027,9.34329,2.899,1.88069,-1.25035,67.1919,6,0,0,0
0,1406072307,734707,12.9933,36.2241,1.53739,38.5146,-8.67211,-0.284616,3.46405,9.3427,2.7376,2.14255,-1.30445,67.1486,7,0,0,0
0,1406072308,735715,12.8894,36.2229,1.26912,38.4688,-8.67226,-0.304277,3.47635,9.34803,2.59436,2.30679,-0.3368,67.0475,8,0,0,0
0,1406072309,736718,12.8252,36.0513,1.32375,38.2875,-8.68253,-0.301225,3.4539,9.34914,1.9443,1.16142,-1.51461,67.0983,7,0,0,0
0,1406072310,737722,12.8306,36.0837,1.4479,38.3244,-8.69593,-0.356026,3.46672,9.36825,2.18827,3.2811,-1.75246,67.1733,8,0,0,0
0,1406072311,738727,12.9072,36.099,1.59631,38.3703,-8.66057,-0.324705,3.47581,9.33767,1.98071,1.3008,-1.4284,67.0944,7,0,0,0
0,1406072312,739730,12.9104,36.3704,1.1069,38.6097,-8.66485,-0.334594,3.48645,9.34596,1.45751,2.85777,-1.76589,67.0901,8,0,0,0
0,1406072313,740731,13.0884,36.2255,1.70705,38.5552,-8.67107,-0.310463,3.48479,9.35027,3.42106,1.93353,-0.74228,66.9878,8,0,0,0
0,1406072314,741745,13.021,36.4176,1.66356,38.7112,-8.6866,-0.325759,3.44792,9.35154,2.79863,3.09184,-1.45566,67.1,8,0,0,0
0,1406072315,742746,13.0472,36.3503,1.80862,38.6632,-8.67835,-0.310264,3.48392,9.35669,2.35004,1.6293,-2.10368,67.0506,8,0,0,0
0,1406072316,743754,12.7692,36.0729,1.35467,38.2902,-8.69418,-0.329654,3.44852,9.35894,3.55445,2.34125,-1.32332,66.9746,7,0,0,0
0,1406072317,744758,12.7917,35.7153,1.68469,37.9743,-8.6748,-0.325163,3.43993,9.33761,2.77523,2.58169,-1.27159,67.0263,8,0,0,0
0,1406072318,745765,12.8417,35.7308,1.87882,38.0148,-8.67488,-0.31897,3.43281,9.33485,1.20614,1.52386,-2.02654,66.9222,8,0,0,0
0,1406072319,746768,13.0118,35.9118,1.41263,38.2225,-8.67067,-0.318819,3.45239,9.33815,2.38043,2.54492,-1.45611,67.0346,7,0,0,0
0,1406072320,747776,12.8614,35.8109,1.45251,38.0782,-8.6874,-0.301864,3.4894,9.36685,2.19994,1.09446,-0.73105,66.9554,7,0,0,0
0,1406072321,748778,13.0051,35.7996,1.68335,38.1258,-8.67755,-0.331262,3.41027,9.3295,2.67619,3.00136,-1.00298,66.9228,8,0,0,0
0,1406072322,749779,12.6596,35.9379,1.45987,38.1305,-8.67723,-0.308969,3.45771,9.34588,3.51125,1.73317,-1.34467,66.8953,8,0,0,0
0,1406072323,750782,12.8023,36.0295,1.39537,38.2619,-8.67084,-0.327041,3.44843,9.33714,2.1246,1.49094,-2.72889,66.9871,8,0,0,0
0,1406072324,751788,12.6047,35.7922,1.3921,37.9723,-8.68194,-0.308001,3.4525,9.3483,2.93791,1.67762,-1.69281,66.8872,8,0,0,0
0,1406072325,752795,12.7336,35.8405,1.66208,38.0717,-8.6789,-0.320992,3.4468,9.34381,4.03396,2.16696,0.554643,66.8244,7,0,0,0
0,1406072326,753798,12.9534,35.9918,1.53829,38.2827,-8.70259,-0.307877,3.45088,9.36688,2.35857,1.59428,-1.07835,66.7998,8,0,0,0
0,1406072327,754804,12.8537,36.1862,1.44549,38.4285,-8.67884,-0.313166,3.46024,9.34845,2.7521,1.37278,-1.18745,66.7954,8,0,0,0
0,1406072328,755809,12.8628,35.7591,1.40682,38.0282,-8.68613,-0.316373,3.48609,9.36493,3.22154,1.77974,-1.49595,66.8137,7,0,0,0
0,1406072329,756814,13.1589,35.9277,1.28039,38.2831,-8.67136,-0.312309,3.46093,9.34174,3.19681,2.83422,-1.06703,66.8039,8,0,0,0
0,1406072330,757815,13.1154,36.0894,1.16784,38.4164,-8.684,-0.314651,3.47485,9.35871,2.85889,2.67514,-1.33118,66.8071,7,0,0,0
0,1406072331,758821,12.9298,36.0295,1.35865,38.3034,-8.69051,-0.286627,3.41507,9.34184,2.50419,1.26284,-2.01677,66.7168,8,0,0,0
0,1406072332,759829,12.797,35.782,1.75042,38.0419,-8.70425,-0.306935,3.47203,9.37621,2.96793,2.1081,-2.31624,66.6596,8,0,0,0
0,1406072333,760832,13.0631,36.0363,1.86775,38.3764,-8.68821,-0.297131,3.47171,9.36088,1.55756,1.7933,-1.02679,66.6076,6,0,0,0
0,1406072334,761838,12.7794,35.933,1.24921,38.1583,-8.62162,-0.361359,3.47873,9.304,3.67318,1.95095,-0.60534,66.6071,8,0,0,0
0,1406072335,762847,12.6627,35.67,1.4104,37.8772,-8.67069,-0.276342,3.4626,9.3406,1.65305,2.13338,-1.90389,66.5899,7,0,0,0
0,1406072336,763855,13.2107,35.9001,1.79075,38.2955,-8.67568,-0.348646,3.46602,9.34891,3.57579,1.38007,-0.44092,66.457,7,0,0,0
0,1406072337,764858,13.1637,35.8087,1.83597,38.1958,-8.70173,-0.307262,3.42121,9.35517,2.91922,2.2488,-2.93741,66.3965,8,0,0,0
0,1406072338,765867,13.1509,35.8162,1.66177,38.1904,-8.71285,-0.293334,3.46018,9.37938,2.52925,1.69767,-1.25359,66.3249,8,0,0,0
0,1406072339,766877,12.871,36.1166,1.52732,38.3719,-8.68298,-0.361005,3.43025,9.34297,2.51807,1.58189,-0.516432,66.3105,8,0,0,0
0,1406072340,767886,12.6977,35.9223,2.00043,38.1529,-8.67316,-0.301942,3.45828,9.34209,1.75358,1.60976,-2.3862,66.288,8,0,0,0
0,1406072341,768892,13.132,35.5953,1.46725,37.9687,-8.69915,-0.303574,3.43038,9.356,1.37763,1.17769,-2.15376,66.2012,8,0,0,0
0,1406072342,769903,13.244,35.856,1.77088,38.2647,-8.77314,-0.28557,3.31257,9.38204,2.08792,2.17557,-0.29946,66.3169,8,0,0,0
0,1406072343,770910,13.0262,36.001,1.61273,38.3191,-8.59643,-0.462366,3.65376,9.35213,2.84234,2.98796,-1.92868,66.3738,8,0,0,0
0,1406072344,771916,12.8526,35.7069,1.76287,37.9906,-8.55844,-0.317588,3.71978,9.33727,1.91631,1.64443,-1.4824,66.2318,7,0,0,0
0,1406072345,772924,13.3781,35.9399,1.60514,38.3827,-8.75414,-0.29441,3.38748,9.39131,3.36585,1.80178,-1.24113,66.2828,8,0,0,0
0,1406072346,773929,13.0074,35.9181,1.75335,38.2411,-8.70085,-0.31626,3.344,9.32669,3.12441,3.30085,-2.03967,66.2201,8,0,0,0
0,1406072347,774937,13.1764,36.0763,1.55449,38.4387,-8.73422,-0.290337,3.46497,9.4009,1.69381,1.87937,-1.394,65.9994,7,0,0,0
0,1406072348,775938,13.0158,35.716,1.62364,38.0484,-8.70319,-0.325875,3.48167,9.37943,2.93939,1.83562,-1.65197,66.2424,7,0,0,0
0,1406072349,776939,13.0133,35.8713,1.37864,38.1837,-8.68103,-0.30139,3.46275,9.35103,2.90852,1.87386,-1.92533,66.2345,7,0,0,0
0,1406072350,777946,12.903,35.8015,2.01386,38.1089,-8.67588,-0.343528,3.45275,9.34401,2.53713,1.68922,-1.32144,66.2551,7,0,0,0
0,1406072351,778949,13.3156,35.7487,1.72303,38.1869,-8.70566,-0.315594,3.46846,9.37648,2.71649,2.26368,-1.24796,66.3734,7,0,0,0
0,1406072352,779951,13.0718,35.8895,1.52055,38.2262,-8.68551,-0.322024,3.43752,9.34656,3.04204,2.20629,-1.35037,66.3732,8,0,0,0
0,1406072353,780959,13.264,36.1351,1.71648,38.5308,-8.65634,-0.317817,3.47477,9.33313,2.76568,1.6337,-1.5482,66.462,6,0,0,0
0,1406072354,781974,13.0595,36.0573,1.68703,38.3865,-8.67907,-0.292679,3.48507,9.35722,2.08367,1.5305,-1.8174,66.5337,8,0,0,0
0,1406072355,782984,13.0914,36.1258,1.70481,38.4625,-8.68366,-0.34555,3.47314,9.35885,1.24658,2.03229,-1.29492,66.6174,8,0,0,0
0,1406072356,783993,13.1662,36.0376,1.51294,38.3973,-8.67895,-0.328657,3.4777,9.35556,3.3787,2.86784,-2.06824,66.5701,9,0,0,0
0,1406072358,785001,13.1576,35.8124,1.50224,38.1825,-8.68703,-0.316864,3.49911,9.37063,0.660854,1.9116,-1.57967,66.7087,8,0,0,0
0,1406072359,786005,13.0382,35.9016,2.00929,38.2487,-8.70367,-0.324579,3.50769,9.38953,1.87204,2.76546,-0.438897,66.7359,7,0,0,0
0,1406072360,787010,13.0634,35.7059,1.76328,38.0614,-8.68807,-0.312258,3.44832,9.35259,2.57002,1.3698,-1.3374,66.7148,8,0,0,0
0,1406072361,788013,13.0522,35.9792,1.57662,38.306,-8.6823,-0.323252,3.4499,9.34819,3.3723,1.43127,-1.91554,66.6684,7,0,0,0
0,1406072362,789019,13.0656,35.9814,1.4965,38.3094,-8.69157,-0.286461,3.48065,9.36699,1.81092,3.36141,-1.74343,66.6803,8,0,0,0
0,1406072363,790024,12.8569,35.9535,1.58586,38.2161,-8.67425,-0.317921,3.46865,9.34747,1.37698,2.62226,-0.234305,66.6422,7,0,0,0
0,1406072364,791031,13.013,36.0313,1.9253,38.3575,-8.6788,-0.298514,3.47427,9.35313,1.86596,1.92374,-1.08019,66.7248,8,0,0,0
0,1406072365,792037,13.0429,35.6178,1.95573,37.9812,-8.68227,-0.317652,3.46043,9.35186,2.52771,1.73272,-0.766532,66.7657,8,0,0,0
0,1406072366,793039,13.0278,35.7728,2.12226,38.1303,-8.67205,-0.33443,3.47708,9.34914,2.09592,2.45971,-1.13725,66.8208,7,0,0,0
0,1406072367,794041,13.0095,35.7661,1.52501,38.0891,-8.69712,-0.302871,3.48739,9.37515,2.79846,2.09705,-0.292446,66.804,7,0,0,0
0,1406072368,795047,12.8751,35.6856,1.41963,37.9638,-8.66953,-0.353252,3.49989,9.356,1.91389,1.90467,-1.17147,66.721,8,0,0,0
0,1406072369,796053,12.7637,35.9279,1.57676,38.1603,-8.6996,-0.278262,3.45677,9.36534,1.24744,1.95636,-0.36044,66.7748,7,0,0,0
0,1406072370,797056,13.1656,35.9926,1.58089,38.3575,-8.67467,-0.332526,3.42587,9.33258,1.1399,2.14511,-1.35058,66.7041,7,0,0,0
0,1406072371,798062,13.155,36.0452,1.62564,38.4051,-8.6984,-0.313998,3.48032,9.37408,1.49962,2.06863,-2.18641,66.6312,8,0,0,0
0,1406072372,799070,13.085,35.6889,1.46529,38.0402,-8.67616,-0.305991,3.42818,9.33391,3.88756,1.85378,-0.806665,66.5457,8,0,0,0
0,1406072373,800072,12.9339,35.9186,1.53703,38.2073,-8.69237,-0.299145,3.45577,9.35891,2.22985,1.86942,-0.430503,66.5877,7,0,0,0
0,1406072374,801077,12.8202,35.9945,1.72178,38.2482,-8.65978,-0.331196,3.45032,9.32771,0.603171,1.46183,-2.12639,66.4377,8,0,0,0
0,1406072375,802082,12.8502,35.7584,2.03271,38.0516,-8.66725,-0.293023,3.44984,9.33319,2.43515,1.08608,-2.68768,66.4808,7,0,0,0
0,1406072376,803088,12.9279,35.947,1.29245,38.2229,-8.6683,-0.252059,3.43879,9.32889,2.93933,2.42734,-2.5247,66.437,6,0,0,0
0,1406072377,804094,13.1939,35.9092,1.9866,38.3079,-8.70383,-0.315943,3.49375,9.38418,3.02078,2.29626,-1.83015,66.4115,8,0,0,0
0,1406072378,805100,12.86,36.1683,1.44493,38.4137,-8.69205,-0.276851,3.47498,9.36503,2.54822,1.11299,0.155867,66.3705,7,0,0,0
0,1406072379,806112,12.9161,35.8808,1.56768,38.1669,-8.66956,-0.321249,3.44668,9.3351,2.59984,2.88524,-1.86654,66.3911,9,0,0,0
0,1406072380,807120,13.1565,35.79,1.38775,38.1568,-8.69657,-0.318698,3.45962,9.36487,1.6725,3.01289,-0.741884,66.3171,7,0,0,0
0,1406072381,808125,13.1087,35.8989,1.90901,38.265,-8.68708,-0.316166,3.4444,9.35036,1.4245,1.77596,-1.44018,66.3855,8,0,0,0
0,1406072382,809128,13.0397,36.0471,1.27613,38.3543,-8.66404,-0.323631,3.4658,9.33713,2.02054,1.33844,-1.76974,66.289,7,0,0,0
0,1406072383,810134,13.0597,35.8239,1.7409,38.1699,-8.67636,-0.351446,3.49325,9.35978,1.66372,1.92609,-1.73666,66.3476,8,0,0,0
0,1406072384,811143,13.0271,36.0438,1.42761,38.3523,-8.66151,-0.26371,3.47596,9.33668,2.69563,2.09853,-1.0977,66.3505,8,0,0,0
0,1406072385,812149,12.8923,35.8573,1.62866,38.1394,-8.67209,-0.341669,3.48403,9.35203,3.3835,1.36313,-2.12615,66.3263,8,0,0,0
0,1406072386,813154,13.2316,35.9566,1.98056,38.365,-8.66199,-0.320084,3.44611,9.32782,3.02253,3.02977,-1.08659,66.3142,7,0,0,0
0,1406072387,814156,12.9395,35.9958,1.69403,38.2884,-8.67635,-0.322644,3.44003,9.339,3.64487,1.3863,-0.751563,66.2479,8,0,0,0
0,1406072388,815163,12.8075,36.2786,1.65247,38.5085,-8.68142,-0.304951,3.48342,9.35918,2.62429,1.81526,-1.96323,66.392,7,0,0,0
0,1406072389,816168,12.863,36.1362,1.01376,38.3707,-8.67149,-0.308059,3.50466,9.35801,2.70819,2.40721,-1.70365,66.3149,8,0,0,0
0,1406072390,817174,12.9781,35.9312,1.9356,38.2521,-8.65872,-0.345883,3.45977,9.33076,2.18933,1.61005,-1.07163,66.37,8,0,0,0
0,1406072391,818184,13.2038,35.9861,1.53049,38.3625,-8.70246,-0.309191,3.46218,9.37097,1.51057,2.60105,-0.5234,66.3526,8,0,0,0
0,1406072392,819189,13.0421,36.1436,1.3182,38.4472,-8.71051,-0.313796,3.4378,9.36963,2.89737,1.03184,-0.377136,66.3017,8,0,0,0
0,1406072393,820191,12.5946,35.9762,1.54011,38.1482,-8.68619,-0.372531,3.42463,9.34435,2.35007,1.79356,-1.27947,66.3525,8,0,0,0
0,1406072394,821194,13.0707,36.2352,1.71492,38.5587,-8.6723,-0.305634,3.49301,9.35432,2.06154,2.1026,-1.84396,66.3634,8,0,0,0
0,1406072395,822198,12.9696,36.6332,1.37858,38.8857,-8.68065,-0.283982,3.43393,9.3395,1.66815,0.88219,-0.795914,66.433,7,0,0,0
0,1406072396,823205,13.0892,36.0857,1.64727,38.4216,-8.68778,-0.34382,3.46051,9.35793,1.47718,2.25111,-1.0375,66.5321,7,0,0,0
0,1406072397,824210,13.0438,36.1754,1.77598,38.4961,-8.69042,-0.299944,3.46865,9.36189,3.2783,1.21054,-0.877814,66.4574,7,0,0,0
0,1406072398,825216,12.7727,36.1973,1.6855,38.4217,-8.68582,-0.325299,3.46894,9.35857,2.4341,1.62197,-1.09606,66.5215,6,0,0,0
0,1406072399,826222,12.9768,36.1222,1.3506,38.4062,-8.68015,-0.283882,3.4557,9.34706,3.50031,2.63662,-2.40679,66.4119,6,0,0,0
0,1406072400,827226,13.064,36.3827,1.43608,38.6838,-8.69769,-0.284704,3.4235,9.35153,2.51114,0.9044,-0.725081,66.5464,7,0,0,0
0,1406072401,828240,13.1889,36.372,1.24573,38.7095,-8.67812,-0.316097,3.48608,9.35748,2.76753,0.547238,-0.160421,66.4952,7,0,0,0
0,1406072402,829242,13.195,36.3493,1.48356,38.6986,-8.6759,-0.30433,3.48706,9.3554,0.953788,2.51078,-0.613742,66.3784,7,0,0,0
0,1406072403,830244,12.9626,36.2731,1.26673,38.5405,-8.67086,-0.289788,3.49514,9.35328,3.33934,2.59676,-1.97152,66.3916,8,0,0,0
0,1406072404,831245,13.0899,36.2251,1.29769,38.5394,-8.65979,-0.305364,3.47109,9.33454,2.91055,1.51146,-1.84538,66.4692,8,0,0,0
0,1406072405,832248,12.9759,36.3804,1.55592,38.6566,-8.7064,-0.318801,3.46665,9.3766,3.12781,2.81974,-2.77798,66.5108,8,0,0,0
0,1406072406,833259,12.7799,36.4439,1.80962,38.6621,-8.66281,-0.319819,3.50217,9.34943,0.778521,1.05413,-0.308394,66.6141,8,0,0,0
0,1406072407,834260,13.1708,36.2456,1.49847,38.5935,-8.69204,-0.318147,3.46132,9.36128,2.61228,2.67161,-1.03315,66.5615,8,0,0,0
0,1406072408,835268,12.609,36.0464,1.59652,38.2214,-8.69909,-0.305032,3.48502,9.37617,3.44327,2.63576,-2.0424,66.6483,7,0,0,0
0,1406072409,836269,12.7992,35.9387,1.29894,38.1719,-8.68786,-0.297632,3.45284,9.35359,2.43609,2.06663,-1.68054,66.6212,8,0,0,0
0,1406072410,837275,12.4513,35.6965,1.7545,37.8464,-8.67832,-0.323554,3.50857,9.36632,3.13544,1.18687,-0.274149,66.6606,7,0,0,0
0,1406072411,838277,12.9371,35.9607,1.54512,38.2483,-8.66506,-0.322735,3.45935,9.33566,3.96008,1.432,-1.45853,66.6562,8,0,0,0
0,1406072412,839285,12.886,36.1044,1.42097,38.3614,-8.64032,-0.318508,3.45321,9.31028,2.16216,2.59708,-0.985572,66.7757,8,0,0,0
0,1406072413,840291,13.157,35.9091,1.8526,38.2885,-8.6781,-0.328122,3.46991,9.35186,1.91804,2.25041,-1.31692,66.8521,7,0,0,0
0,1406072414,841299,12.9589,35.7784,1.49944,38.0825,-8.70934,-0.348855,3.45837,9.37735,1.05489,1.08832,-0.443625,66.6602,8,0,0,0
0,1406072415,842308,12.9163,36.021,1.53723,38.2976,-8.67514,-0.316644,3.44724,9.34033,2.91398,2.1137,-1.83738,66.7094,7,0,0,0
0,1406072416,843311,12.9908,35.9383,1.45396,38.2418,-8.69422,-0.308931,3.4639,9.36395,2.12655,1.43932,-1.30905,66.6981,7,0,0,0
0,1406072417,844318,12.8882,35.6321,1.57824,37.9242,-8.67679,-0.330163,3.47593,9.35296,0.833966,1.93741,-2.76345,66.7105,8,0,0,0
0,1406072418,845324,12.9114,35.777,1.74963,38.0757,-8.67741,-0.319925,3.4528,9.34461,2.25136,2.09919,-0.910495,66.8166,8,0,0,0
0,1406072419,846334,13.0098,36.1128,1.91534,38.4325,-8.68127,-0.306273,3.45411,9.34822,1.72898,2.37644,-0.826726,66.8258,8,0,0,0
0,1406072420,847345,12.9215,35.7302,1.49777,38.0244,-8.68271,-0.343311,3.46527,9.35497,2.90362,2.97536,-1.5101,66.7715,8,0,0,0
0,1406072421,848353,12.8103,35.9863,1.76129,38.239,-8.68809,-0.314359,3.4592,9.3567,3.37009,2.0419,-1.67838,66.7454,8,0,0,0
0,1406072422,849359,12.7726,35.8542,1.95199,38.1113,-8.68251,-0.291812,3.48324,9.35971,2.02868,2.02544,-0.751324,66.8281,8,0,0,0
0,1406072423,850366,12.8166,35.8713,1.86656,38.1379,-8.68671,-0.317294,3.47408,9.36103,1.55963,1.61362,-1.51671,66.7624,7,0,0,0
0,1406072424,851375,12.9569,36.0466,1.77919,38.3459,-8.65451,-0.222482,3.46462,9.32489,2.7601,1.02831,-1.36807,66.8409,8,0,0,0
0,1406072425,852377,12.9676,36.1401,1.64026,38.4312,-8.69049,-0.331257,3.4523,9.35696,2.82545,1.70938,-1.29113,66.7201,8,0,0,0
0,1406072426,853381,12.989,35.7183,1.57784,38.0395,-8.68985,-0.331122,3.45392,9.35696,3.95358,2.22128,-1.07051,66.7685,7,0,0,0
0,1406072427,854383,13.0582,35.8387,1.40031,38.1693,-8.6792,-0.312815,3.45874,9.34822,0.954002,1.35547,-1.09437,66.7975,8,0,0,0
0,1406072428,855390,13.0086,35.9103,1.68867,38.2312,-8.68243,-0.29864,3.47021,9.355,3.10527,1.56402,-0.182392,66.7499,7,0,0,0
0,1406072429,856398,12.9351,35.9742,1.55102,38.2605,-8.68221,-0.36728,3.4806,9.3611,1.86736,3.37739,-1.52353,66.7167,8,0,0,0
0,1406072430,857400,12.8195,35.9751,1.67234,38.2275,-8.69185,-0.298814,3.4519,9.35698,2.6958,3.32147,-2.03942,66.6447,7,0,0,0
0,1406072431,858406,12.589,36.0416,1.46789,38.2052,-8.68059,-0.330846,3.51036,9.36935,3.54738,2.2491,-0.898807,66.7219,8,0,0,0
0,1406072432,859412,12.9027,35.938,1.61746,38.2183,-8.69302,-0.324243,3.46102,9.36228,2.40647,1.60949,-1.01965,66.7421,8,0,0,0
0,1406072433,860418,12.6752,36.095,1.24144,38.276,-8.66569,-0.323782,3.47676,9.34275,1.49286,0.809885,-0.572214,66.853,7,0,0,0
0,1406072434,861422,13.003,36.0934,1.48699,38.393,-8.68555,-0.317319,3.47771,9.3613,2.324,2.94045,-2.0405,66.8722,8,0,0,0
0,1406072435,862449,13.1021,35.5987,1.48367,37.9622,-8.68077,-0.323198,3.47782,9.35711,2.38745,2.25356,-1.17982,66.9162,8,0,0,0
0,1406072436,863453,13.0779,35.9851,1.85527,38.3327,-8.67787,-0.290489,3.44417,9.34089,1.61912,2.53281,-0.681187,66.9491,8,0,0,0
0,1406072437,864455,12.8147,35.8011,1.69165,38.063,-8.67059,-0.30949,3.43938,9.33296,1.14695,2.35691,-0.677737,66.8612,7,0,0,0
0,1406072438,865456,12.9072,35.8043,1.35027,38.0837,-8.67842,-0.318881,3.45515,9.34637,3.03243,2.35838,-0.0711558,66.8232,7,0,0,0
0,1406072439,866464,13.1744,36.1052,1.5094,38.4634,-8.66662,-0.318499,3.47385,9.34234,2.6443,2.14572,-2.04882,66.8422,8,0,0,0
0,1406072440,867470,12.8102,35.6974,1.14406,37.9435,-8.69268,-0.330223,3.43048,9.35093,1.5554,2.17001,-1.91145,66.7928,7,0,0,0
0,1406072441,868474,12.9337,35.7546,1.6613,38.0583,-8.69797,-0.295051,3.47606,9.37148,1.79986,2.12485,-1.67762,66.8659,7,0,0,0
0,1406072442,869480,13.0455,36.233,1.21758,38.5292,-8.68264,-0.307305,3.47114,9.35583,2.82605,2.46621,-1.3692,66.7567,6,0,0,0
0,1406072443,870488,12.7541,35.901,1.29015,38.121,-8.6705,-0.333347,3.40489,9.32105,2.51362,1.91432,-1.3376,66.7756,7,0,0,0
0,1406072444,871489,12.6397,36.1038,1.60943,38.2862,-8.68366,-0.311239,3.47518,9.35841,1.28099,1.57531,-1.57447,66.8007,8,0,0,0
0,1406072445,872491,12.8203,35.8965,1.73326,38.1566,-8.67227,-0.338331,3.47878,9.35011,2.80784,3.10293,-1.61415,66.7372,7,0,0,0
0,1406072446,873498,12.9285,35.8877,1.26886,38.1665,-8.67479,-0.306922,3.45409,9.34221,2.23629,2.64774,-0.959005,66.6629,7,0,0,0
0,1406072447,874504,12.9687,35.8734,1.62842,38.1804,-8.68814,-0.323533,3.46663,9.35981,1.99658,0.660048,-0.99114,66.6977,5,0,0,0
0,1406072448,875513,13.1623,36.0654,1.50362,38.4216,-8.69764,-0.322615,3.45607,9.36469,2.58356,2.28201,-2.42234,66.6764,7,0,0,0
0,1406072449,876519,12.9788,36.1165,1.99107,38.4293,-8.67689,-0.330424,3.46459,9.34885,2.96404,0.993631,-1.74518,66.6628,8,0,0,0
0,1406072450,877525,13.069,35.8933,1.60188,38.2321,-8.67487,-0.291124,3.47376,9.34907,3.05747,1.19164,-1.28015,66.6648,7,0,0,0
0,1406072451,878527,13.0659,35.9477,1.73581,38.2879,-8.68731,-0.342908,3.46064,9.35751,3.1639,1.52745,-1.60746,66.6604,7,0,0,0
0,1406072452,879529,13.2546,36.0955,1.80176,38.4944,-8.66301,-0.294545,3.46706,9.33568,3.22649,2.74362,-1.25953,66.715,7,0,0,0
0,1406072453,880531,12.7773,35.79,1.58415,38.0354,-8.67682,-0.320211,3.50369,9.36299,2.23444,1.87219,-0.325184,66.7103,8,0,0,0
0,1406072454,881536,12.7164,35.8888,1.47103,38.1035,-8.67574,-0.331533,3.5327,9.37328,1.77926,2.85322,-0.0770504,66.6926,6,0,0,0
0,1406072455,882544,12.9268,36.0042,1.6805,38.2914,-8.70102,-0.270938,3.48952,9.37859,2.93138,2.14169,-2.5845,66.7077,8,0,0,0
0,1406072456,883547,12.7915,35.8588,1.46534,38.1001,-8.69767,-0.37714,3.46535,9.37018,2.06481,2.59375,-2.38814,66.727,7,0,0,0
0,1406072457,884557,12.9933,35.742,1.47792,38.0592,-8.69006,-0.281204,3.45546,9.35609,3.32186,3.54077,-1.24207,66.6379,8,0,0,0
0,1406072458,885559,12.8478,36.1137,1.56562,38.3629,-8.67414,-0.379346,3.47235,9.35103,2.72078,2.58842,-0.872928,66.7039,7,0,0,0
0,1406072459,886567,12.8063,36.0335,1.69815,38.2792,-8.68321,-0.294722,3.43931,9.34419,1.78964,1.85984,-1.07132,66.8467,8,0,0,0
0,1406072460,887573,12.7946,35.8417,1.47535,38.0855,-8.69533,-0.326714,3.45166,9.36106,2.66087,2.25509,-2.37621,66.6777,8,0,0,0
0,1406072461,888577,13.0468,36.0075,1.60597,38.3319,-8.69395,-0.317928,3.45384,9.36028,2.30121,1.2142,-1.54499,66.7787,7,0,0,0
0,1406072462,889585,12.9286,36.2232,1.71865,38.4996,-8.66961,-0.323861,3.4579,9.33939,3.22081,1.65925,-1.62646,66.8075,8,0,0,0
0,1406072463,890594,12.9144,35.6917,1.47048,37.9848,-8.67753,-0.32518,3.44522,9.3421,1.29476,0.915897,-1.91254,66.8383,8,0,0,0
0,1406072464,891598,12.9613,35.9031,1.31795,38.1938,-8.70165,-0.320505,3.46909,9.37315,1.2815,1.80703,-1.46602,66.7511,8,0,0,0
0,1406072465,892606,12.8425,35.7799,1.82144,38.0585,-8.70683,-0.289538,3.44309,9.36737,3.42917,2.13998,-1.39346,66.6671,8,0,0,0
0,1406072466,893613,12.8526,35.7615,1.73025,38.0404,-8.68039,-0.326601,3.46108,9.35066,2.2251,1.99601,-1.18233,66.6302,7,0,0,0
0,1406072467,894619,12.8956,36.1745,1.6266,38.4388,-8.66791,-0.333795,3.46825,9.34199,2.10476,2.30025,-2.06938,66.7042,7,0,0,0
0,1406072468,895620,12.9287,35.5476,1.61281,37.8601,-8.6781,-0.293936,3.44577,9.3418,2.55683,1.17151,-0.930049,66.6488,8,0,0,0
0,1406072469,896629,13.0171,35.9044,1.61905,38.2256,-8.67872,-0.288641,3.46266,9.34845,3.52995,1.87785,-2.18041,66.7051,8,0,0,0
0,1406072470,897633,13.0126,35.8803,1.43069,38.1938,-8.68315,-0.36499,3.47611,9.36022,3.22714,1.75982,-1.59654,66.6499,8,0,0,0
0,1406072471,898636,13.088,35.9568,1.67107,38.3012,-8.67926,-0.317293,3.4799,9.35628,2.43962,2.08675,-2.25588,66.6612,7,0,0,0
0,1406072472,899642,12.978,35.7668,1.49938,38.0781,-8.6848,-0.327363,3.50305,9.3704,1.91927,2.44145,-2.1698,66.6789,7,0,0,0
0,1406072473,900643,12.6338,35.834,1.69829,38.0339,-8.70995,-0.315,3.46551,9.37935,3.27776,1.73735,-2.92854,66.7959,7,0,0,0
0,1406072474,901649,12.7862,35.8105,1.82742,38.0686,-8.68152,-0.282945,3.47354,9.35491,3.05196,2.01016,-1.57074,66.8087,7,0,0,0
0,1406072475,902656,13.036,36.2557,2.20843,38.5913,-8.68328,-0.26076,3.46052,9.35107,2.75519,2.5699,-2.06122,66.8929,7,0,0,0
0,1406072476,903666,13.0311,35.8577,1.55791,38.1839,-8.67312,-0.34022,3.46049,9.34419,2.34923,1.86289,-0.792191,66.8479,7,0,0,0
0,1406072477,904668,12.8155,35.9866,1.63938,38.2356,-8.66008,-0.348663,3.45062,9.32873,2.4894,1.68015,-0.443889,66.6666,7,0,0,0
0,1406072478,905675,13.0075,35.807,1.46386,38.1245,-8.68175,-0.302494,3.43291,9.34073,1.73393,2.50293,-1.14453,66.7252,7,0,0,0
0,1406072479,906678,13.3278,35.8096,1.73776,38.2489,-8.67335,-0.325119,3.48955,9.35466,2.19996,1.73491,-1.52739,66.7525,8,0,0,0
0,1406072480,907689,12.8333,35.9477,1.48918,38.1988,-8.70773,-0.303248,3.46832,9.37794,2.87491,3.30738,-1.25425,66.7484,8,0,0,0
0,1406072481,908697,12.9522,35.9076,1.64081,38.2074,-8.68811,-0.315376,3.47461,9.36245,1.71015,0.853595,-0.890929,66.7488,7,0,0,0
0,1406072482,909701,13.0598,35.8542,1.69741,38.1964,-8.66697,-0.304975,3.48367,9.34587,2.31372,2.96046,-1.91959,66.8072,8,0,0,0
0,1406072483,910707,12.8265,35.6958,1.70179,37.9685,-8.68965,-0.267314,3.45293,9.35436,2.53603,2.31756,-1.62537,66.7567,7,0,0,0
0,1406072484,911712,13.0886,35.9156,1.54154,38.2573,-8.68008,-0.260995,3.4807,9.3556,2.62119,2.33867,-2.59811,66.6393,8,0,0,0
0,1406072485,912715,12.8833,36.0992,1.37512,38.3539,-8.64517,-0.325933,3.47624,9.3236,2.10886,2.12794,-1.51705,66.6025,8,0,0,0
0,1406072486,913718,12.9844,35.6679,1.54537,37.9892,-8.66989,-0.292344,3.43631,9.33063,1.39615,1.73701,-1.78578,66.6055,8,0,0,0
0,1406072487,914724,13.191,35.975,1.67538,38.3538,-8.65751,-0.355793,3.46222,9.33091,2.19028,1.87905,-2.1846,66.6748,8,0,0,0
0,1406072488,915732,13.0851,35.6804,1.55378,38.0358,-8.71666,-0.285467,3.46774,9.38546,2.81258,0.604294,-1.97278,66.5462,7,0,0,0
0,1406072489,916734,12.8305,36.1111,1.90965,38.3703,-8.68718,-0.30418,3.44897,9.35174,2.90101,0.390119,-1.00324,66.6959,7,0,0,0
0,1406072490,917738,13.3864,35.9121,1.87895,38.3719,-8.68641,-0.317572,3.46033,9.35566,1.94007,2.09971,-1.87786,66.5172,7,0,0,0
0,1406072491,918748,13.0152,35.8094,1.69132,38.1389,-8.67638,-0.299555,3.47209,9.35012,2.41776,1.35207,-1.57785,66.5716,8,0,0,0
0,1406072492,919753,12.8546,35.9867,1.86897,38.2594,-8.63467,-0.338374,3.42296,9.29455,2.15076,2.82215,-1.99897,66.5875,8,0,0,0
0,1406072493,920757,13.1025,35.8184,1.98452,38.1912,-8.68559,-0.291707,3.4764,9.36001,2.89536,1.82619,-2.16374,66.6577,6,0,0,0
0,1406072494,921759,13.1781,36.1547,1.34038,38.5048,-8.67515,-0.310265,3.51404,9.36499,2.68007,2.04109,-1.28935,66.568,7,0,0,0
0,1406072495,922765,13.1699,35.8029,1.63019,38.1832,-8.68159,-0.3921,3.47164,9.35821,2.32857,0.655247,-0.554097,66.6939,6,0,0,0
0,1406072496,923766,12.8047,36.0627,1.73397,38.3078,-8.68875,-0.269449,3.46235,9.35707,1.0905,2.22597,-1.68616,66.6469,8,0,0,0
0,1406072497,924770,13.0693,35.8251,1.87923,38.1808,-8.6836,-0.307392,3.45956,9.35243,1.50297,2.81781,-1.47973,66.7512,7,0,0,0
0,1406072498,925773,13.0293,35.9541,1.77289,38.2832,-8.75653,-0.310998,3.41729,9.40486,1.69409,1.90926,-1.37899,66.8457,7,0,0,0
0,1406072499,926775,13.0384,36.0379,1.21932,38.3434,-8.68553,-0.346373,3.47213,9.36024,2.99201,1.65549,-1.87907,66.8143,7,0,0,0
0,1406072500,927781,12.9879,36.0724,1.67356,38.3758,-8.67336,-0.281291,3.47565,9.34807,1.89394,3.17024,-1.26621,66.8823,9,0,0,0
0,1406072501,928785,13.3476,35.9253,2.04776,38.3794,-8.73469,-0.228332,3.51486,9.41813,1.62748,3.46639,-1.62443,67.0002,8,0,0,0
0,1406072502,929790,13.3307,35.8044,1.68704,38.2427,-8.68023,-0.276546,3.48326,9.35713,1.85133,2.14975,-2.16618,67.1309,8,0,0,0
0,1406072503,930799,13.2415,36.1188,1.8214,38.5126,-8.70805,-0.296222,3.4358,9.36603,2.99651,3.09032,-1.51539,67.0459,8,0,0,0
0,1406072504,931803,13.0316,35.9904,1.54802,38.3084,-8.69025,-0.33655,3.42079,9.34535,2.97727,3.29071,-4.17338,67.176,8,0,0,0
0,1406072505,932810,12.9206,35.8645,1.97507,38.172,-8.64631,-0.335309,3.44525,9.31348,2.7209,2.58089,-2.51894,67.187,7,0,0,0
0,1406072506,933812,13.1164,36.1688,1.51828,38.5036,-8.69586,-0.471854,3.4322,9.36059,1.57648,3.2867,-1.3137,67.1007,7,0,0,0
0,1406072507,934814,16.8054,36.6799,3.98147,40.5424,-8.65902,-0.283714,3.5048,9.34573,0.790791,2.13967,-0.808615,67.0987,8,0,0,0
0,1406072508,935816,16.5217,37.0973,3.79395,40.7869,-8.68241,-0.337664,3.4584,9.35194,2.04069,2.43422,-0.198906,67.0209,7,0,0,0
