0,1406030986,utime,,bx(uT),by(uT),bz(uT),,B(uT),ax,,,,ay,,az,,,,,A,,,,,gx,,,gy,,,,gz,,,T(C),rate,,track,tilt,roll
0,1406030986,mins,,-1000,-1000,-1000,,,,,0,,,,-2000,-2000,-2000,,0,,,-2000,,-2000,-2000,-2000,,0,,0,,-180,-180
0,1406030986,maxs,,,1000,,1000,,1000,,,,1000,,,2000,,2000,,2000,2000,,2000,,,2000,,2000,,2000,,37000,360,180,180
0,1406030986,attr,,,,,F,,,,,F,,,,,F,,,,,,F,,,,,,F,,,,,F,,,,F,,,,,F,,,,,F,,,,,,F,,,,,F,,,,,F,,,,,I,F,F,F
0,1406030986,1967,0.963303,2.85933,-5.59633,6.35788,-1.43851,-0.09898,0.560887,1.54716,-0.266667,0.428986,-0.544928,3.26889,0,0,0,0
0,1406030987,2972,5.96693,17.6992,-32.8661,37.8027,-8.67228,-0.554606,3.35116,9.31377,0.428414,2.86656,-1.91213,32.4676,12,0,0,0
0,1406030988,3976,5.79284,17.8878,-34.0728,38.9164,-8.67121,-0.563169,3.33168,9.3063,0.683075,4.00002,-2.02103,32.5455,12,0,0,0
0,1406030989,4982,6.22343,17.912,-33.2079,38.2405,-8.69976,-0.568632,3.35006,9.33981,0.351643,3.29449,-2.25111,32.5782,8,0,0,0
0,1406030990,5987,6.12491,17.8492,-33.841,38.7469,-8.6855,-0.594687,3.39191,9.34327,0.738689,3.46777,-0.0387708,32.5413,12,0,0,0
0,1406030991,6990,6.41311,18.027,-33.6071,38.6722,-8.69232,-0.508871,3.36309,9.33412,0.70778,4.6991,0.00644131,32.7152,11,0,0,0
0,1406030992,7996,6.69565,17.6453,-33.3345,38.3063,-8.67594,-0.580547,3.35608,9.32053,1.4855,4.38334,-1.41634,32.5463,11,0,0,0
0,1406030993,8999,6.63004,18.0268,-33.9564,39.0123,-8.66082,-0.550364,3.344,9.30027,0.166211,4.43303,0.107126,32.6794,11,0,0,0
0,1406030995,10002,5.97724,18.2519,-33.9735,39.0264,-8.70137,-0.564886,3.39236,9.35634,1.03831,3.15644,-0.425293,32.6745,11,0,0,0
0,1406030996,11003,6.13325,17.7504,-33.7462,38.62,-8.69659,-0.493837,3.36565,9.33821,1.25123,4.46426,-1.31476,32.5935,11,0,0,0
0,1406030997,12004,6.09229,17.8519,-33.4994,38.445,-8.65968,-0.55288,3.37821,9.31172,0.814343,3.78814,-1.6988,32.6365,11,0,0,0
0,1406030998,13009,5.96689,17.9032,-33.3411,38.3114,-8.70901,-0.558596,3.35037,9.34793,0.7774,3.51742,-0.809565,32.6766,12,0,0,0
0,1406030999,14013,6.43632,17.8558,-33.4666,38.4742,-8.68234,-0.563306,3.33935,9.31942,0.545636,2.64517,-0.00754893,32.6894,11,0,0,0
0,1406031000,15014,5.98464,17.8381,-33.822,38.7032,-8.69484,-0.588277,3.35707,9.33897,0.857947,3.11442,-0.14734,32.7503,10,0,0,0
0,1406031001,16019,5.98836,17.836,-33.3032,38.2504,-8.68302,-0.547898,3.37299,9.33124,1.19352,4.51136,-1.06587,32.7212,11,0,0,0
0,1406031002,17022,6.05235,18.4842,-33.7861,38.9846,-8.69843,-0.540184,3.33989,9.33324,1.04179,3.17292,-1.44568,32.7855,11,0,0,0
0,1406031004,19599,6.09444,18.6544,-34.0798,39.3264,-8.6798,-0.558918,3.28542,9.29759,-0.278953,4.23411,-1.62955,32.7609,4,0,0,0
0,1406031005,20605,2.21903,17.6433,-36.5685,40.6628,-8.6828,-0.552881,3.32689,9.31477,0.940205,4.25213,-0.569536,32.8602,11,0,0,0
0,1406031006,21607,2.42622,17.6488,-36.7395,40.8308,-8.69241,-0.543691,3.3429,9.32891,0.5075,3.61141,-0.669597,32.7692,11,0,0,0
0,1406031007,22610,2.24845,17.2063,-36.0699,40.0269,-8.71459,-0.538951,3.33751,9.34738,0.838647,3.60592,-1.5236,32.8069,12,0,0,0
0,1406031008,23614,2.47829,17.8925,-36.7472,40.9468,-8.69117,-0.560852,3.3745,9.34014,0.89631,2.93123,-1.2969,32.7993,12,0,0,0
0,1406031009,24616,2.49417,17.5878,-36.3291,40.4395,-8.69689,-0.539926,3.3912,9.35027,1.02915,2.69654,-1.42468,32.8908,11,0,0,0
0,1406031010,25618,2.43343,17.5436,-36.5259,40.5936,-8.70829,-0.573981,3.32352,9.33861,0.982226,2.44064,-1.23319,32.8212,12,0,0,0
0,1406031011,26620,2.30123,17.3249,-35.8235,39.8594,-8.70142,-0.592835,3.32638,9.33439,1.38175,4.00173,-0.792261,32.8812,12,0,0,0
0,1406031012,27629,2.42278,17.5693,-36.9317,40.9695,-8.6987,-0.540684,3.34726,9.33616,1.8336,4.09748,-0.746077,32.956,12,0,0,0
0,1406031013,28630,2.41689,17.7905,-36.1993,40.4071,-8.66299,-0.576546,3.31527,9.29359,0.727271,3.49318,-0.613421,32.9621,11,0,0,0
0,1406031014,29634,1.92699,17.2597,-36.0758,40.0384,-8.69595,-0.565349,3.36936,9.343,0.642275,4.46368,-1.46093,33.0068,12,0,0,0
0,1406031015,30635,2.4089,17.8794,-36.1431,40.3955,-8.68585,-0.534113,3.2743,9.29786,0.844544,4.12416,-2.00403,32.9706,11,0,0,0
0,1406031016,31794,2.34115,17.749,-36.242,40.4227,-8.66636,-0.534869,3.33005,9.29952,0.970766,2.88236,0.0883181,32.8989,4,0,0,0
0,1406031017,32800,2.50591,17.4283,-36.4425,40.4732,-8.68301,-0.57053,3.34892,9.32392,1.37265,4.41489,0.227346,33.2006,8,0,0,0
0,1406031018,33811,2.28834,17.8848,-36.2917,40.524,-8.68608,-0.553256,3.34343,9.32376,0.653252,4.44759,-0.784501,33.0902,6,0,0,0
0,1406031019,34818,2.13639,18.1492,-36.4143,40.7426,-8.68999,-0.583353,3.34632,9.33027,0.946684,4.63103,-1.65971,33.1341,8,0,0,0
0,1406031020,35820,2.31071,17.8899,-36.268,40.5062,-8.68241,-0.567606,3.33598,9.31854,1.81565,3.99515,-0.64137,33.0975,7,0,0,0
0,1406031021,36825,2.32261,18.0898,-36.2447,40.5748,-8.6997,-0.545492,3.35272,9.33933,0.78034,3.37297,-0.314242,33.1231,7,0,0,0
0,1406031022,37836,2.38419,17.7642,-36.204,40.3978,-8.70221,-0.567779,3.36602,9.34778,0.47419,3.4511,-0.300813,33.1556,7,0,0,0
0,1406031023,38839,2.40797,17.7961,-36.1391,40.3551,-8.68286,-0.580564,3.36363,9.32969,0.597306,3.76124,-0.1762,33.2608,6,0,0,0
0,1406031024,39840,2.28562,17.8258,-36.1969,40.4128,-8.68725,-0.573124,3.39868,9.346,1.96374,3.52739,-0.360629,33.2366,8,0,0,0
0,1406031025,40843,2.76329,17.7007,-36.5471,40.7018,-8.7014,-0.563865,3.36073,9.34488,1.64083,3.78596,-1.72791,33.2297,8,0,0,0
0,1406031026,41845,2.40221,17.9715,-36.5505,40.8005,-8.69766,-0.559332,3.36594,9.343,0.713342,3.90847,-1.83076,33.194,7,0,0,0
0,1406031027,42847,2.46478,17.7472,-36.5055,40.6656,-8.66124,-0.564265,3.34085,9.30036,1.52031,2.48627,-0.887707,33.2179,7,0,0,0
0,1406031028,43854,2.76446,17.7746,-36.4795,40.6735,-8.69733,-0.58048,3.31775,9.32674,1.04076,3.32339,-1.31815,33.2846,8,0,0,0
0,1406031029,44862,2.77943,18.1679,-35.8862,40.3189,-8.69029,-0.572272,3.34083,9.3279,1.67305,4.393,-0.230426,33.374,8,0,0,0
0,1406031030,45865,2.39137,17.9985,-36.5637,40.8236,-8.70399,-0.56274,3.33616,9.33842,0.320491,3.52412,-1.68548,33.3871,8,0,0,0
0,1406031031,46867,2.80837,17.7626,-36.1442,40.3708,-8.6908,-0.578955,3.37832,9.34228,0.328697,4.56174,0.229926,33.3965,8,0,0,0
0,1406031032,47870,2.5842,17.6409,-35.7772,39.9736,-8.69839,-0.543917,3.3618,9.34128,1.68638,4.12815,-0.527849,33.4707,8,0,0,0
0,1406031033,48876,3.08789,17.5943,-36.4928,40.6303,-8.69877,-0.574391,3.34568,9.33767,0.917847,3.49356,-1.70092,33.4546,7,0,0,0
0,1406031034,49883,2.66634,18.2058,-36.008,40.4369,-8.67589,-0.565302,3.35997,9.32095,1.23054,3.27533,-0.889111,33.3937,9,0,0,0
0,1406031035,50886,2.53567,17.7138,-37.0168,41.1152,-8.68423,-0.567094,3.30797,9.31022,0.669312,3.12177,-0.733828,33.4943,9,0,0,0
0,1406031037,52913,2.62009,17.7652,-36.3864,40.5763,-8.7037,-0.562198,3.37593,9.3524,0.491818,3.77629,-1.41886,33.4478,5,0,0,0
0,1406031038,53915,2.31298,17.7307,-36.3953,40.5505,-8.67857,-0.594253,3.35997,9.32524,0.863247,4.95411,-1.19855,33.5533,7,0,0,0
0,1406031039,54916,2.69898,17.9194,-36.2625,40.5383,-8.69266,-0.558459,3.32728,9.32443,0.518875,3.78095,-2.48559,33.5631,7,0,0,0
0,1406031040,55920,2.44864,18.1931,-36.5802,40.9279,-8.68142,-0.568603,3.34582,9.3212,2.4865,3.36734,-0.3869,33.5596,8,0,0,0
0,1406031041,56921,2.48272,17.6785,-36.235,40.394,-8.67694,-0.56047,3.33525,9.31275,0.543646,2.91511,-0.888517,33.4479,7,0,0,0
0,1406031042,57926,2.56592,17.7068,-36.5545,40.6982,-8.69277,-0.571791,3.37217,9.34145,1.87483,3.91559,-1.40391,33.58,8,0,0,0
0,1406031043,58928,2.48164,17.9833,-36.5362,40.7977,-8.68849,-0.574734,3.32608,9.32111,0.154604,4.21679,-0.862534,33.5709,7,0,0,0
0,1406031044,59931,2.63524,17.9109,-36.1029,40.3876,-8.69128,-0.56346,3.34266,9.32894,0.918796,4.68525,-0.721801,33.5288,8,0,0,0
0,1406031045,60937,2.65532,17.9997,-36.512,40.7942,-8.71034,-0.552059,3.34293,9.34612,0.0622754,4.21317,-0.308744,33.601,8,0,0,0
0,1406031046,61938,2.63406,17.9138,-36.2757,40.5434,-8.70514,-0.587072,3.36067,9.34977,1.53497,4.51907,-1.44382,33.7355,7,0,0,0
0,1406031047,62943,2.50979,17.8778,-36.1587,40.4149,-8.68995,-0.555752,3.34532,9.32819,1.22096,3.37792,-1.33119,33.7138,7,0,0,0
0,1406031048,63946,2.62646,17.7879,-36.6091,40.7864,-8.6887,-0.568181,3.34539,9.3278,0.973481,3.60513,-1.46221,33.7655,7,0,0,0
0,1406031049,64954,2.58672,17.8082,-36.2997,40.5153,-8.70767,-0.572662,3.33509,9.34207,0.528005,4.42943,-1.2649,33.6974,8,0,0,0
0,1406031050,65958,2.32838,17.8334,-36.4571,40.6518,-8.70838,-0.562722,3.34864,9.34697,1.07831,4.04141,-0.858841,33.6859,7,0,0,0
0,1406031053,68070,2.3874,17.7144,-36.3103,40.4715,-8.68196,-0.577285,3.33282,9.31759,0.585757,3.49138,-1.90606,33.736,1,0,0,0
0,1406031054,69071,2.4729,17.7437,-36.2984,40.4788,-8.69563,-0.568594,3.35685,9.3384,1.35412,5.0377,-1.16118,33.7014,7,0,0,0
0,1406031055,70074,2.5268,18.0928,-36.249,40.5921,-8.69056,-0.574675,3.32231,9.32169,1.32808,4.53235,-0.69403,33.8016,7,0,0,0
0,1406031056,71079,2.42265,17.8203,-36.4747,40.6674,-8.66624,-0.579923,3.37676,9.31894,0.202641,4.17876,-0.684877,33.8545,7,0,0,0
0,1406031057,72081,2.36961,17.3469,-36.1207,40.1402,-8.69523,-0.586858,3.30695,9.32134,0.047201,3.78113,-1.70292,33.9088,6,0,0,0
0,1406031058,73129,2.37223,17.3763,-36.1709,40.1983,-8.70433,-0.588028,3.30348,9.32867,0.549479,4.13645,-1.46548,33.8846,3,0,0,0
0,1406031059,74133,2.31978,17.781,-36.2173,40.4133,-8.70763,-0.561682,3.34622,9.34534,0.293002,3.89953,-1.02675,33.859,7,0,0,0
0,1406031060,75139,2.37952,17.856,-35.9306,40.1934,-8.69023,-0.569451,3.35532,9.33288,0.959303,4.21032,-2.13376,33.8374,7,0,0,0
0,1406031061,76146,2.49905,17.8073,-35.9739,40.2177,-8.67882,-0.543752,3.31592,9.30661,-0.0319445,4.38331,-0.634768,33.8876,7,0,0,0
0,1406031062,77150,2.72068,17.6544,-36.3496,40.5015,-8.68727,-0.566558,3.33455,9.32249,0.312756,4.21836,-1.23832,33.8312,7,0,0,0
0,1406031063,78151,2.40207,17.4615,-36.2747,40.3302,-8.70737,-0.562459,3.33037,9.33949,2.00586,4.20752,-0.206245,33.9085,8,0,0,0
0,1406031064,79155,2.22289,17.5536,-36.3343,40.4135,-8.71141,-0.540978,3.35229,9.34982,2.13319,3.74506,-1.08279,33.9064,8,0,0,0
0,1406031065,80158,2.4256,17.5283,-36.2603,40.3477,-8.65526,-0.55564,3.31267,9.28418,1.14882,5.40885,-1.88239,33.9649,8,0,0,0
0,1406031066,81163,2.97424,17.5478,-36.2703,40.4018,-8.68479,-0.564145,3.35074,9.32584,0.754852,4.28633,-1.93196,34.0069,7,0,0,0
0,1406031067,82167,2.75521,17.4029,-36.3866,40.4282,-8.70362,-0.572501,3.36086,9.34752,1.47724,3.72366,-1.82879,33.9738,7,0,0,0
0,1406031068,83173,2.70639,17.7487,-36.5204,40.695,-8.69345,-0.577097,3.34976,9.33434,0.318864,3.56065,-1.28427,33.9695,8,0,0,0
0,1406031069,84177,2.68488,17.9037,-35.9347,40.2374,-8.6868,-0.56855,3.35708,9.33026,1.87948,5.12546,-1.14422,33.9914,8,0,0,0
0,1406031070,85180,2.72411,17.7577,-36.2777,40.4825,-8.6969,-0.567146,3.31474,9.32444,2.0407,2.96035,-1.04054,34.0439,7,0,0,0
0,1406031071,86184,2.66075,17.7045,-36.237,40.4185,-8.68852,-0.572894,3.31916,9.31856,0.819365,4.10086,-1.80876,34.0125,8,0,0,0
0,1406031072,87200,2.7221,17.9835,-36.2331,40.542,-8.6961,-0.554496,3.32187,9.32547,0.910938,4.07576,-0.093684,33.9788,8,0,0,0
0,1406031073,88202,2.27193,17.9452,-35.7406,40.0572,-8.68772,-0.571942,3.34184,9.32585,1.55509,3.51902,-1.53715,33.9884,7,0,0,0
0,1406031074,89207,2.58167,17.4273,-36.3538,40.3977,-8.70298,-0.551227,3.35601,9.3439,1.23919,3.98263,-1.02229,34.1313,8,0,0,0
0,1406031075,90208,2.86429,17.4129,-36.3329,40.3917,-8.69322,-0.54749,3.3762,9.34187,0.906036,3.65779,-1.16602,34.046,7,0,0,0
0,1406031076,91210,2.61437,17.8539,-36.3997,40.6268,-8.69035,-0.552433,3.35392,9.33146,0.690872,4.47872,0.296753,33.9974,7,0,0,0
0,1406031077,92212,2.60047,17.8875,-36.26,40.5156,-8.68481,-0.549461,3.36295,9.32937,1.42099,4.24751,-1.05428,34.1276,8,0,0,0
0,1406031078,93218,2.69316,17.8015,-36.2991,40.5188,-8.6784,-0.577993,3.36461,9.32573,1.00046,3.07849,-1.4108,34.0788,8,0,0,0
0,1406031079,94219,2.71609,17.9245,-36.5154,40.7682,-8.69873,-0.545829,3.3509,9.33779,0.719858,3.38805,-1.27421,34.1004,8,0,0,0
0,1406031080,95223,2.77209,17.732,-36.0349,40.257,-8.67361,-0.577648,3.32048,9.30541,0.880926,3.55841,-0.773835,34.1738,7,0,0,0
0,1406031081,96227,2.86288,17.6991,-36.2271,40.421,-8.70351,-0.572251,3.32295,9.33384,0.199157,3.91094,-0.77661,34.1221,8,0,0,0
0,1406031082,97234,2.49975,18.0066,-36.294,40.5924,-8.70308,-0.562188,3.27819,9.31699,2.23529,3.79238,-0.494639,34.1018,8,0,0,0
0,1406031083,98477,2.46539,18.0636,-36.2695,40.5937,-8.69768,-0.560871,3.28611,9.31465,1.7352,4.1806,-0.655678,34.1027,3,0,0,0
0,1406031084,99482,2.33446,17.469,-35.6842,39.7992,-8.68828,-0.564054,3.33201,9.32238,-0.147552,4.33922,-0.791924,34.1566,7,0,0,0
0,1406031085,100486,2.42795,17.8181,-36.5247,40.7116,-8.67122,-0.536651,3.35007,9.31134,1.70644,4.74431,-0.895361,34.1319,8,0,0,0
0,1406031086,101490,2.79827,17.544,-35.7542,39.9247,-8.6894,-0.568008,3.37717,9.33989,0.951282,3.89262,-0.842397,34.1341,7,0,0,0
0,1406031087,102494,2.63897,18.0117,-36.0453,40.3813,-8.68346,-0.551176,3.33488,9.31814,0.414203,3.55654,-1.98828,34.2225,7,0,0,0
0,1406031088,103496,2.58252,17.733,-36.1501,40.3479,-8.69216,-0.55896,3.35513,9.33397,-0.654266,4.5159,-0.620656,34.2232,8,0,0,0
0,1406031089,104499,2.48399,18.0131,-36.2597,40.5636,-8.69751,-0.559421,3.35979,9.34065,0.753474,4.57183,-1.70409,34.2637,8,0,0,0
0,1406031090,105504,2.71322,17.6943,-36.0729,40.2704,-8.69106,-0.544318,3.32354,9.32077,0.552466,4.57887,-1.57021,34.2745,8,0,0,0
0,1406031091,106511,2.5459,18.1678,-36.4222,40.7815,-8.68874,-0.557956,3.33678,9.32415,-0.0271236,4.54599,-1.67043,34.2387,8,0,0,0
0,1406031093,108528,2.83594,17.4581,-36.2205,40.3082,-8.69824,-0.565909,3.33072,9.33131,1.02416,4.77028,-0.973291,34.2982,3,0,0,0
0,1406031094,109532,2.52712,17.7315,-35.6436,39.8906,-8.69999,-0.58575,3.33436,9.33547,0.485396,4.13453,-1.02823,34.3019,8,0,0,0
0,1406031095,110535,2.51821,17.9786,-36.4205,40.6943,-8.681,-0.57471,3.37487,9.33166,-0.465006,4.39272,-0.441275,34.2427,8,0,0,0
0,1406031096,111536,2.68723,17.9018,-36.4708,40.7163,-8.69115,-0.560004,3.33049,9.32427,0.330276,4.41353,-0.0278568,34.2746,8,0,0,0
0,1406031097,112537,2.43973,17.7029,-35.847,40.0543,-8.68414,-0.57177,3.32019,9.31477,-0.042286,5.64807,-1.45106,34.2448,8,0,0,0
0,1406031098,113540,2.44272,17.7781,-35.987,40.2131,-8.68229,-0.533838,3.34757,9.32059,-0.126119,5.22771,-0.780928,34.3328,8,0,0,0
0,1406031099,114544,2.58277,18.1939,-36.1409,40.5445,-8.69076,-0.523357,3.3606,9.33257,-0.484531,4.48828,-1.77597,34.2924,8,0,0,0
0,1406031100,115551,3.02248,17.867,-36.4561,40.7113,-8.67711,-0.545379,3.32392,9.30796,1.02803,3.64556,-1.34612,34.3658,8,0,0,0
0,1406031101,116557,2.67332,18.2466,-36.7242,41.0944,-8.69439,-0.555871,3.36977,9.34113,1.73088,3.46954,-0.804762,34.3655,8,0,0,0
0,1406031102,117566,2.55816,17.5877,-36.163,40.2943,-8.68413,-0.545119,3.3681,9.33035,0.594664,4.51473,-0.966327,34.233,7,0,0,0
0,1406031103,118567,2.44237,17.8224,-36.3029,40.5155,-8.71292,-0.554356,3.40723,9.37184,2.1511,3.94561,-1.16046,34.3418,7,0,0,0
0,1406031104,119570,3.00605,17.3786,-36.718,40.7341,-8.70223,-0.539722,3.37297,9.34864,0.991619,3.91257,-0.913914,34.3975,8,0,0,0
0,1406031105,120582,2.76364,17.7208,-35.8509,40.0868,-8.69757,-0.551269,3.34905,9.33637,0.859352,4.46912,-0.827773,34.3931,8,0,0,0
0,1406031106,121585,2.46982,17.8577,-35.887,40.1606,-8.6565,-0.508472,3.28751,9.27368,-1.08578,7.65339,-3.72924,34.4054,8,0,0,0
0,1406031107,122590,2.97805,18.2918,-35.2675,39.8403,-8.94014,-0.279762,3.23231,9.51064,-0.878809,4.87163,-1.56566,34.5153,8,0,0,0
0,1406031108,123591,3.14677,18.4767,-35.3427,40.005,-8.70555,-0.445724,3.33981,9.33486,2.1886,4.27779,-0.506931,34.505,8,0,0,0
0,1406031109,124598,3.02692,18.0159,-35.6378,40.0473,-8.68587,-0.506847,3.31728,9.31159,0.287024,3.17168,-0.174757,34.6223,7,0,0,0
0,1406031110,125606,3.32532,18.4497,-35.5942,40.2293,-8.69971,-0.513632,3.33923,9.3327,0.583368,4.63171,0.077949,34.4663,8,0,0,0
0,1406031111,126615,2.67463,18.7763,-35.1974,39.982,-8.71362,-0.495507,3.31252,9.33517,1.76987,3.74623,-0.464805,34.5563,8,0,0,0
0,1406031112,127616,2.64527,18.2487,-35.529,40.029,-8.73203,-0.536407,3.32379,9.35862,1.28793,3.78726,-0.566456,34.6065,6,0,0,0
0,1406031113,128627,2.99346,18.1259,-35.2379,39.7394,-8.70536,-0.472376,3.31608,9.32753,-0.271919,4.26158,-0.968892,34.5624,8,0,0,0
0,1406031114,129634,2.87895,18.7375,-35.0238,39.8253,-8.72445,-0.502394,3.36099,9.36294,-0.284945,5.18118,-0.840776,34.5376,6,0,0,0
0,1406031115,130635,2.79435,17.9056,-35.9699,40.2772,-8.67949,-0.528249,3.3514,9.31904,-0.567849,4.25647,-1.35848,34.6501,7,0,0,0
0,1406031116,131636,2.59126,18.2042,-36.2891,40.6818,-8.7103,-0.50326,3.3244,9.33671,2.37396,4.7667,0.735706,34.5475,7,0,0,0
0,1406031117,132649,2.7935,17.838,-36.5169,40.7368,-8.69228,-0.488848,3.28709,9.30589,1.51405,4.14971,-0.0462825,34.7,8,0,0,0
0,1406031118,133650,2.74606,18.1214,-36.5124,40.8544,-8.70376,-0.5071,3.31107,9.32608,-0.00260886,3.61307,-0.0672632,34.6866,7,0,0,0
0,1406031119,134654,2.69363,17.8572,-36.1067,40.3711,-8.69686,-0.496384,3.32381,9.3236,0.590967,4.70233,-1.10591,34.6731,8,0,0,0
0,1406031120,135659,2.90182,17.8046,-36.026,40.2902,-8.70356,-0.495,3.33938,9.33534,0.388447,4.37345,-0.374259,34.7048,8,0,0,0
0,1406031121,136661,2.80585,17.846,-36.1878,40.4463,-8.69178,-0.510572,3.28633,9.30632,0.989536,4.75483,-1.73308,34.8045,7,0,0,0
0,1406031122,137664,2.81978,17.6695,-36.4878,40.6389,-8.70713,-0.461613,3.31599,9.32861,1.75612,4.39406,-0.464353,34.7347,7,0,0,0
0,1406031123,138665,2.68087,18.5222,-36.7065,41.2023,-8.70361,-0.496175,3.31945,9.32833,0.854214,3.75149,-1.2835,34.671,8,0,0,0
0,1406031124,139671,2.82721,18.1691,-36.3533,40.7391,-8.70407,-0.477696,3.30549,9.32283,1.07688,3.60353,-1.63396,34.7309,8,0,0,0
0,1406031125,140672,2.32538,17.8039,-36.1467,40.3605,-8.71004,-0.469846,3.31101,9.32997,0.0807705,3.71636,-1.32699,34.8146,7,0,0,0
0,1406031126,141673,2.5296,17.681,-35.9446,40.1376,-8.70282,-0.486068,3.32488,9.329,1.81413,4.98311,0.37435,34.9176,8,0,0,0
0,1406031127,142677,2.77153,18.2053,-36.3881,40.7825,-8.72097,-0.476322,3.30209,9.33734,1.45523,3.78016,-0.521188,34.8539,8,0,0,0
0,1406031128,143685,2.50978,18.2756,-35.9958,40.4474,-8.70466,-0.509745,3.34503,9.33918,1.09229,4.40693,-1.78855,34.8075,7,0,0,0
0,1406031129,144686,2.83271,17.6474,-36.2251,40.3944,-8.6987,-0.50099,3.3134,9.32186,0.252193,4.33485,-0.857622,34.8832,8,0,0,0
0,1406031130,145693,2.87983,17.8545,-36.1184,40.3932,-8.70015,-0.526409,3.30298,9.32091,0.782193,5.04435,-2.95528,34.9362,7,0,0,0
0,1406031131,146699,3.08151,17.6536,-36.3222,40.5025,-8.70222,-0.501729,3.29737,9.31949,0.940415,3.55837,-1.45165,34.9071,8,0,0,0
0,1406031132,147705,2.69785,17.9352,-36.0135,40.3227,-8.69584,-0.515385,3.32719,9.32488,0.950838,4.4167,-1.01546,34.9356,7,0,0,0
0,1406031133,148709,2.52351,17.933,-36.1932,40.4711,-8.69018,-0.492365,3.33956,9.32279,1.82848,4.38183,-0.998204,34.9283,4,0,0,0
0,1406031134,149712,2.58099,17.9407,-35.9566,40.2667,-8.67129,-0.436064,3.35054,9.30632,1.27562,3.30914,-2.06037,34.9556,12,0,0,0
0,1406031135,150717,3.0193,17.5504,-36.3922,40.5157,-8.7232,-0.498931,3.31366,9.34471,-0.330992,4.89753,-0.766703,34.919,11,0,0,0
0,1406031136,151721,2.63568,17.5889,-36.4502,40.5578,-8.69996,-0.478001,3.2994,9.31686,1.80476,4.41381,-0.350468,35.0034,11,0,0,0
0,1406031137,152727,2.93888,18.242,-36.4188,40.8379,-8.69879,-0.520452,3.29681,9.31712,0.752967,3.72893,-2.00487,34.8954,12,0,0,0
0,1406031138,153730,2.57769,18.1486,-36.4729,40.8202,-8.71128,-0.511515,3.33078,9.34035,0.455606,4.65228,-0.924815,35.0026,12,0,0,0
0,1406031139,154734,2.32706,17.5959,-35.9938,40.132,-8.70221,-0.497604,3.3716,9.34579,0.695734,4.42155,-1.85442,35.1167,11,0,0,0
0,1406031140,155738,2.46894,17.985,-36.0046,40.3223,-8.74287,-0.533299,3.28933,9.35638,0.629421,3.8971,-0.93765,34.9307,13,0,0,0
0,1406031141,156740,2.77245,17.5624,-36.2679,40.3916,-8.69322,-0.506802,3.30399,9.31371,1.71436,4.59553,-1.9426,35.0611,12,0,0,0
0,1406031142,157741,2.84298,17.5387,-36.2154,40.3391,-8.70872,-0.487606,3.3277,9.33559,1.11894,5.07145,-0.994071,35.0399,12,0,0,0
0,1406031143,158745,2.94784,18.051,-36.1625,40.5248,-8.70302,-0.515719,3.2791,9.31456,-0.0814572,3.42849,-1.64601,35.1264,12,0,0,0
0,1406031144,159748,2.72129,18.1103,-36.2806,40.6407,-8.68206,-0.503299,3.30995,9.30523,0.326486,4.2328,-0.926232,35.1091,12,0,0,0
0,1406031145,160750,2.92647,17.5104,-35.7239,39.8921,-8.70839,-0.48391,3.31995,9.33232,0.890907,3.89102,-0.764544,35.0768,11,0,0,0
0,1406031146,161755,2.71901,17.914,-36.2751,40.5486,-8.70028,-0.498773,3.32183,9.32621,1.57463,4.5816,-1.66176,35.1363,11,0,0,0
0,1406031147,162757,2.8244,18.2979,-36.0702,40.5444,-8.70772,-0.453177,3.33238,9.33459,0.538145,4.4947,-1.04147,35.2448,12,0,0,0
0,1406031148,163763,2.92327,18.1764,-36.4683,40.8517,-8.71103,-0.498923,3.28268,9.32239,1.35079,4.57877,-1.97548,35.1866,11,0,0,0
0,1406031149,164764,2.76867,17.4624,-36.4976,40.5546,-8.69453,-0.504301,3.36246,9.3357,1.17891,4.80373,-1.57401,35.1383,11,0,0,0
0,1406031150,165768,2.45929,18.1258,-36.5755,40.8944,-8.71843,-0.536,3.3446,9.35333,1.37015,3.79476,-1.47283,35.2073,12,0,0,0
0,1406031151,166771,2.48224,18.1739,-35.9433,40.3531,-8.6849,-0.477635,3.33567,9.3157,-0.212813,3.25087,-2.30247,35.1933,12,0,0,0
0,1406031152,167772,2.92978,17.2312,-36.5533,40.5172,-8.67149,-0.533608,3.31809,9.29995,1.62781,4.40843,-0.655531,35.2196,11,0,0,0
0,1406031153,168774,2.84107,17.4196,-36.2286,40.2992,-8.71262,-0.488888,3.27235,9.31971,0.361278,4.85545,-1.2185,35.314,12,0,0,0
0,1406031154,169779,2.68297,17.972,-36.3032,40.5969,-8.68674,-0.490205,3.32947,9.31586,1.79288,4.29833,-0.0758102,35.2398,11,0,0,0
0,1406031155,170784,2.74814,17.4398,-36.23,40.3028,-8.68476,-0.486591,3.32513,9.31227,0.637576,5.25504,-1.04303,35.2488,11,0,0,0
0,1406031156,171787,2.93937,17.6809,-35.5137,39.7803,-8.7262,-0.459832,3.29724,9.33969,0.64746,4.4981,-0.998268,35.2723,11,0,0,0
0,1406031157,172792,3.02763,17.3299,-36.0879,40.1476,-8.67977,-0.480579,3.35653,9.31856,1.478,5.05119,-0.672341,35.311,11,0,0,0
0,1406031158,173793,2.92542,17.6078,-36.595,40.7159,-8.67176,-0.560239,3.30877,9.29845,1.64005,5.25118,-0.222842,35.415,11,0,0,0
0,1406031159,174795,2.21447,18.1425,-36.351,40.6872,-8.75171,-0.4885,3.26008,9.35196,1.14106,3.98665,-0.980348,35.3316,11,0,0,0
0,1406031160,175798,2.7412,17.8415,-36.2645,40.5087,-8.66794,-0.517513,3.3106,9.29306,0.991915,4.74096,-0.408027,35.3308,12,0,0,0
0,1406031161,176799,2.25312,18.491,-36.1567,40.673,-8.72793,-0.486658,3.33127,9.35473,1.0119,3.9388,-2.21711,35.3786,11,0,0,0
0,1406031162,177802,2.52197,17.898,-35.9784,40.2634,-8.71657,-0.414421,3.35665,9.34972,1.39725,4.18687,-1.05668,35.3494,12,0,0,0
0,1406031163,178804,2.39485,18.2529,-36.2873,40.6899,-8.67805,-0.517325,3.38624,9.32967,0.252704,5.36044,-0.372135,35.3813,11,0,0,0
0,1406031164,179809,3.10027,17.5989,-36.0783,40.2614,-8.72393,-0.475419,3.3187,9.34595,1.19819,4.00565,-1.45407,35.3949,10,0,0,0
0,1406031165,180811,2.34035,17.9129,-35.976,40.257,-8.69457,-0.493828,3.34482,9.32884,0.699593,3.96886,-1.97284,35.415,10,0,0,0
0,1406031166,181813,2.99417,17.8553,-36.3582,40.6164,-8.70459,-0.508094,3.29695,9.32191,1.33293,3.77538,-1.88047,35.4332,11,0,0,0
0,1406031167,182816,2.7558,18.3514,-36.3708,40.8314,-8.68544,-0.517003,3.30316,9.30672,1.25712,4.86443,-1.30176,35.3887,10,0,0,0
0,1406031168,183822,2.58921,17.8195,-36.3263,40.5442,-8.6874,-0.481696,3.31785,9.31188,1.15886,3.89002,-1.68152,35.5341,11,0,0,0
0,1406031169,184827,2.60907,17.4619,-36.2418,40.3137,-8.69476,-0.44276,3.33359,9.32243,0.145402,4.54937,-0.211213,35.4265,11,0,0,0
0,1406031170,185828,2.24637,17.8854,-36.3158,40.5434,-8.6833,-0.580709,3.32796,9.3173,0.999899,3.90218,-0.378351,35.5156,11,0,0,0
0,1406031171,186830,2.76665,18.0275,-36.2183,40.5514,-8.68746,-0.539303,3.30346,9.30998,0.143478,4.77788,-0.27172,35.4327,12,0,0,0
0,1406031172,187834,2.6606,17.8469,-36.0843,40.3444,-8.70767,-0.490871,3.32716,9.33459,1.26697,4.58167,-2.07045,35.4763,12,0,0,0
0,1406031173,188835,2.64903,17.5041,-36.0243,40.1392,-8.68713,-0.494595,3.2962,9.30461,1.28871,3.32406,-1.3743,35.4427,11,0,0,0
0,1406031174,189841,2.03848,17.5191,-35.8447,39.9489,-8.71148,-0.48205,3.3197,9.33503,1.18049,4.17872,-0.791913,35.4567,11,0,0,0
0,1406031175,190842,2.57467,17.795,-36.1625,40.3859,-8.6963,-0.544987,3.33717,9.33056,1.04176,4.22028,-0.829644,35.5765,12,0,0,0
0,1406031176,191844,2.8353,17.9868,-36.2426,40.5597,-8.71444,-0.510012,3.29485,9.33046,0.316166,3.10634,-1.49772,35.5061,11,0,0,0
0,1406031177,192845,2.74197,17.6137,-36.1033,40.2642,-8.70094,-0.511647,3.36203,9.34191,0.307606,3.49653,-0.347313,35.4747,11,0,0,0
0,1406031178,193851,3.14392,17.4025,-35.4418,39.6087,-8.69645,-0.51664,3.29132,9.31278,1.18361,4.72716,-2.16106,35.56,12,0,0,0
0,1406031179,194852,2.78409,17.8933,-35.8999,40.2085,-8.66553,-0.550095,3.33968,9.30309,0.184225,4.37207,0.0112079,35.5493,12,0,0,0
0,1406031180,195855,2.89171,17.5819,-36.0228,40.1887,-8.71732,-0.516959,3.31486,9.34062,0.629112,3.90837,-1.56111,35.5781,11,0,0,0
0,1406031181,196861,2.22178,17.9958,-36.3124,40.5878,-8.67911,-0.497502,3.35117,9.31691,1.5745,3.92802,-1.0345,35.5637,11,0,0,0
0,1406031182,197864,2.57314,17.8958,-36.0067,40.291,-8.70365,-0.477399,3.3095,9.32385,0.448448,2.9854,-0.829494,35.5629,11,0,0,0
0,1406031183,198868,2.40678,17.8637,-36.3572,40.5802,-8.68497,-0.480647,3.3361,9.31608,0.0434484,5.32979,-1.89423,35.5966,11,0,0,0
0,1406031184,199877,2.75867,17.4974,-35.9725,40.0973,-8.7101,-0.521096,3.32907,9.33917,2.27432,3.54323,-0.840643,35.6433,12,0,0,0
0,1406031185,200880,2.53484,17.3589,-35.9314,39.9853,-8.66876,-0.495744,3.34189,9.30384,0.832227,3.90104,-0.877539,35.5844,11,0,0,0
0,1406031186,201883,2.35004,18.2409,-35.9566,40.3872,-8.70854,-0.495989,3.34911,9.34351,1.04614,4.68845,-1.07673,35.5496,11,0,0,0
0,1406031187,202888,2.73003,17.7833,-36.0459,40.2865,-8.69298,-0.531345,3.27435,9.30439,1.15517,5.22175,-0.422027,35.5309,11,0,0,0
0,1406031188,203890,2.65273,17.6857,-36.3972,40.5534,-8.69264,-0.503061,3.31749,9.31777,0.514846,4.16465,-0.738467,35.6795,11,0,0,0
0,1406031189,204894,2.83444,17.626,-36.019,40.2004,-8.71083,-0.444782,3.37809,9.3535,0.647407,4.88031,-1.30742,35.6147,12,0,0,0
0,1406031190,205896,2.33426,18.0429,-35.5212,39.9093,-8.71464,-0.520926,3.37316,9.35919,0.554207,5.00643,-2.05195,35.6202,12,0,0,0
0,1406031191,206899,2.59688,18.0457,-36.1628,40.4987,-8.72684,-0.500792,3.329,9.35365,-0.0112046,4.83211,-1.21993,35.6399,11,0,0,0
0,1406031192,207904,2.73737,17.7451,-36.2238,40.4295,-8.67006,-0.4825,3.34545,9.30563,1.55195,3.79185,-2.03257,35.6904,12,0,0,0
0,1406031193,208908,2.4563,17.6247,-35.7981,39.9771,-8.73698,-0.472538,3.27834,9.34375,0.577776,3.52009,-1.37091,35.6788,11,0,0,0
0,1406031194,209912,2.4814,18.1665,-36.4616,40.8121,-8.78652,-0.494874,3.21009,9.36763,1.02628,4.89861,-1.25294,35.6447,11,0,0,0
0,1406031195,210916,2.76325,17.47,-35.9798,40.0921,-8.67382,-0.522226,3.33297,9.30681,0.268988,3.78498,-0.454962,35.7203,12,0,0,0
0,1406031196,211920,1.6041,18.1458,-35.9228,40.2777,-8.68807,-0.53717,3.33241,9.32073,0.248299,3.79783,0.3736,35.8217,11,0,0,0
0,1406031197,212926,2.35554,17.8542,-35.9682,40.2248,-8.70367,-0.538767,3.30707,9.32635,1.22956,4.00242,-1.39503,35.7315,12,0,0,0
0,1406031198,213931,2.38955,17.7761,-35.9073,40.1377,-8.72043,-0.478214,3.30903,9.33939,1.7432,4.38419,-2.51726,35.7026,10,0,0,0
0,1406031199,214934,2.99541,17.3902,-35.6138,39.7459,-8.73086,-0.471308,3.33099,9.35657,1.05191,4.47832,-1.99605,35.8045,11,0,0,0
0,1406031200,215936,2.58672,18.2712,-36.3596,40.7744,-8.69928,-0.512738,3.30785,9.32107,0.885986,4.41227,-1.63493,35.8594,11,0,0,0
0,1406031201,216940,2.84894,17.5149,-36.3315,40.4335,-8.67589,-0.498781,3.34405,9.31142,0.763818,3.65011,-0.919915,35.8142,9,0,0,0
0,1406031202,217947,3.00653,17.7072,-36.2001,40.4107,-8.70328,-0.497919,3.30118,9.32163,1.61455,4.58365,-0.0134035,35.7779,10,0,0,0
0,1406031203,218953,2.44555,17.7065,-35.9141,40.1164,-8.72132,-0.482553,3.31221,9.34157,1.14522,3.93909,-2.94963,35.8956,11,0,0,0
0,1406031204,219954,3.05339,17.9409,-35.5717,39.9568,-8.54316,-0.516093,3.60404,9.28661,0.00381479,4.47831,-1.22581,35.6979,12,0,0,0
0,1406031205,220956,3.26291,17.4364,-36.1958,40.3089,-8.70902,-0.483585,3.30202,9.32653,0.543809,4.93307,-0.193954,35.8323,11,0,0,0
0,1406031206,221957,2.51407,17.8295,-36.0288,40.2776,-8.75873,-0.510122,3.22995,9.34923,1.03551,3.64999,-0.751205,35.8171,11,0,0,0
0,1406031207,222964,2.55377,17.9728,-35.9804,40.3005,-8.78222,-0.458458,3.18732,9.35396,0.692607,4.73631,-0.963135,35.8819,11,0,0,0
0,1406031208,223966,2.75821,17.7645,-35.7171,39.9862,-8.73703,-0.487318,3.2549,9.33635,0.988877,4.40026,-0.400452,35.8863,12,0,0,0
0,1406031209,224967,3.04714,17.7141,-36.0894,40.3177,-8.72995,-0.536486,3.29879,9.34783,1.02743,4.2147,0.943792,35.9444,11,0,0,0
0,1406031210,225970,2.66696,17.9013,-36.0329,40.323,-8.69895,-0.444912,3.35371,9.33365,0.251607,3.97707,-0.445373,35.869,10,0,0,0
0,1406031211,226974,3.16582,18.2469,-35.7392,40.2525,-8.70724,-0.474862,3.33708,9.3369,0.534151,3.75655,-0.895853,35.8645,11,0,0,0
0,1406031212,227975,2.627,18.2122,-35.5475,40.0276,-8.69039,-0.490776,3.29616,9.30744,0.697551,3.55575,-1.6774,35.8623,11,0,0,0
0,1406031213,228976,3.22895,17.4991,-36.0246,40.1798,-8.70224,-0.473393,3.34996,9.33677,0.4674,4.24316,-1.91301,36.0078,11,0,0,0
0,1406031214,229980,2.97724,17.911,-36.2387,40.5328,-8.72881,-0.480074,3.21144,9.31321,0.398307,3.74359,-0.127572,36.0052,11,0,0,0
0,1406031215,230982,2.8521,17.4663,-35.7972,39.933,-8.71365,-0.493782,3.25653,9.31539,2.00057,4.57821,0.162182,35.9681,11,0,0,0
0,1406031216,231991,3.13007,17.4067,-35.6047,39.7553,-8.76564,-0.49275,3.23475,9.35643,1.83987,3.95822,0.138537,36.1105,12,0,0,0
0,1406031217,232996,2.84681,18.3235,-36.0564,40.5453,-8.71194,-0.526641,3.29138,9.32783,0.582648,4.1821,-1.40417,35.9251,12,0,0,0
0,1406031218,233997,2.50212,18.1933,-36.058,40.4653,-8.69854,-0.442868,3.33024,9.32476,0.361461,3.88204,-0.762501,35.9328,11,0,0,0
0,1406031220,235003,2.73982,17.421,-36.0288,40.1132,-8.69706,-0.484292,3.35357,9.3338,1.2035,4.10902,-0.935343,36.0222,11,0,0,0
0,1406031221,236007,2.57714,17.673,-36.0255,40.2097,-8.69229,-0.476429,3.34922,9.32739,1.00723,4.12716,-1.30643,36.0105,11,0,0,0
0,1406031222,237010,2.56371,17.8822,-35.8911,40.181,-8.70436,-0.500286,3.32816,9.33235,1.67951,4.40239,-1.1778,36.0971,12,0,0,0
0,1406031223,238013,2.72999,17.3491,-35.8664,39.9355,-8.68925,-0.483422,3.32207,9.3152,0.0391953,4.36809,-1.03393,36.0759,12,0,0,0
0,1406031224,239015,2.77375,18.019,-35.9984,40.3517,-8.72672,-0.522527,3.33369,9.3564,1.56348,3.9851,-1.73013,35.9493,11,0,0,0
0,1406031225,240018,2.85551,17.2137,-36.1266,40.1197,-8.70772,-0.500081,3.305,9.32725,1.46683,4.22834,-1.4623,36.1785,11,0,0,0
0,1406031226,241020,2.75474,17.4932,-36.368,40.4504,-8.70622,-0.499998,3.32141,9.33167,0.438682,5.02824,-1.52886,36.0774,11,0,0,0
0,1406031227,242028,2.52695,17.811,-36.2954,40.5089,-8.7074,-0.490318,3.31476,9.32989,0.750598,4.40443,-1.98619,36.1818,12,0,0,0
0,1406031228,243030,2.57159,17.9133,-36.3749,40.628,-8.70743,-0.479844,3.35183,9.34261,0.241841,3.46799,-1.22555,36.192,11,0,0,0
0,1406031229,244033,2.4557,17.7543,-35.9056,40.1306,-8.69151,-0.46028,3.29778,9.3075,1.73327,4.1719,-0.138025,36.263,11,0,0,0
0,1406031230,245034,2.15081,18.0594,-36.1771,40.4913,-8.71531,-0.440624,3.29396,9.32743,0.948167,3.98706,-0.549667,36.2902,11,0,0,0
0,1406031231,246035,2.38049,18.2617,-36.2267,40.639,-8.68582,-0.512853,3.31089,9.30959,-0.0410815,4.79964,-1.2851,36.1775,11,0,0,0
0,1406031232,247036,2.72106,18.3026,-35.6848,40.1969,-8.77358,-0.490548,3.20013,9.35185,1.02241,4.64123,-0.483111,36.1608,12,0,0,0
0,1406031233,248038,3.22748,17.2171,-35.8193,39.8731,-8.75719,-0.487724,3.26218,9.35778,0.540246,3.90795,-1.0473,36.2973,11,0,0,0
0,1406031234,249041,2.62351,18.2141,-36.021,40.4493,-8.6818,-0.479072,3.33721,9.31343,0.886484,5.55196,-1.51057,36.3161,11,0,0,0
0,1406031235,250046,2.85721,18.1954,-35.7617,40.2261,-8.71195,-0.509044,3.33148,9.34109,1.55503,4.51158,-0.820548,36.2481,11,0,0,0
0,1406031236,251047,2.833,17.997,-35.563,39.958,-8.74615,-0.481396,3.26434,9.34788,0.593842,4.04399,-0.794974,36.2842,12,0,0,0
0,1406031237,252050,2.46409,18.1865,-35.7822,40.2143,-8.63149,-0.499456,3.46315,9.31372,0.256286,4.49346,-2.31775,36.3487,11,0,0,0
0,1406031238,253052,2.62178,18.1667,-35.4385,39.9097,-8.6374,-0.402419,3.43408,9.30374,0.904044,3.33777,-1.46971,36.3642,11,0,0,0
0,1406031239,254054,2.29519,18.0526,-35.7023,40.0726,-8.71442,-0.469153,3.28791,9.32586,1.44443,3.72231,-0.450434,36.3649,12,0,0,0
0,1406031240,255055,2.85475,17.4372,-35.5969,39.7409,-8.70154,-0.519382,3.30304,9.32183,1.16077,4.08515,-1.5945,36.2462,11,0,0,0
0,1406031241,256058,2.26541,17.7386,-36.1134,40.2985,-8.67378,-0.454081,3.31149,9.29552,0.474483,3.36569,-0.776138,36.1692,12,0,0,0
0,1406031242,257059,3.02028,17.2311,-36.0315,40.0537,-8.65595,-0.490056,3.39358,9.31032,0.876698,5.16207,-2.21028,36.428,12,0,0,0
0,1406031243,258061,2.73132,17.9397,-36.151,40.4498,-8.67887,-0.535354,3.32772,9.31038,0.402966,6.54316,-1.33499,36.3471,12,0,0,0
0,1406031244,259063,2.53061,17.8958,-36.2503,40.5062,-8.68561,-0.51384,3.35178,9.32406,0.574059,3.58375,-1.28042,36.4998,5,0,0,0
0,1406031245,260068,2.96435,17.5961,-35.6176,39.8375,-8.79741,-0.363746,2.95512,9.2876,-0.165732,5.0924,-1.49243,36.2881,7,0,0,0
0,1406031246,261074,3.45791,18.0189,-36.0005,40.4064,-8.62968,-0.498567,3.48517,9.32021,0.475191,4.52166,0.0798044,36.3949,7,0,0,0
0,1406031247,262083,2.89156,17.4296,-36.1997,40.2811,-8.6119,-0.37146,3.46019,9.28848,1.59836,4.07324,-1.92999,36.4788,7,0,0,0
0,1406031248,263089,3.11385,17.2748,-35.9201,39.9796,-8.69548,-0.526567,3.35263,9.33427,1.1241,4.44974,-0.735429,36.4663,9,0,0,0
0,1406031249,264097,2.58911,17.8899,-35.6726,39.9911,-8.58849,-0.364258,3.58655,9.31441,1.24551,4.55433,-0.413581,36.4467,7,0,0,0
0,1406031250,265098,2.95755,17.4193,-35.9629,40.0688,-8.77976,-0.491708,3.4881,9.46006,-1.25245,4.87844,-0.768709,36.5122,8,0,0,0
0,1406031251,266106,2.87575,17.5893,-36.1212,40.2789,-8.7791,-0.457333,3.28265,9.3839,1.46896,3.46593,0.0738529,36.5963,7,0,0,0
0,1406031252,267114,3.13897,17.7117,-36.2584,40.4751,-8.64871,-0.505975,3.38987,9.30309,1.64819,4.93882,-2.3274,36.5518,8,0,0,0
0,1406031253,268119,2.71002,17.8897,-35.7045,40.0274,-8.69739,-0.485471,3.3451,9.33113,1.98104,5.06986,0.15539,36.5862,8,0,0,0
0,1406031254,269120,2.83549,17.8159,-36.0421,40.3049,-8.71318,-0.482924,3.32121,9.33719,1.62975,4.48177,-1.49367,36.5058,7,0,0,0
0,1406031255,270126,3.01473,17.7176,-35.722,39.9883,-8.71984,-0.367357,3.32601,9.33985,0.797709,3.08543,-2.21794,36.5427,7,0,0,0
0,1406031256,271130,3.00432,17.7105,-36.1151,40.3359,-8.71834,-0.583681,3.28321,9.33433,0.606277,3.71657,0.293184,36.6626,7,0,0,0
0,1406031257,272131,2.77358,17.596,-35.919,40.0935,-8.70808,-0.499535,3.30955,9.32917,1.38724,4.42372,-1.1417,36.6456,8,0,0,0
0,1406031258,273138,2.53979,17.9474,-35.9353,40.248,-8.70075,-0.500478,3.33585,9.33174,0.816012,4.7789,0.132943,36.6359,7,0,0,0
0,1406031259,274142,2.69731,17.9397,-36.445,40.7105,-8.72819,-0.418438,3.32889,9.35083,0.930566,4.81328,-1.39213,36.6345,8,0,0,0
0,1406031260,275143,3.02273,18.2429,-36.7595,41.1485,-8.72826,-0.601552,3.31113,9.35457,0.294438,4.024,-1.57338,36.5639,8,0,0,0
0,1406031261,276145,2.68313,17.8639,-36.1803,40.4393,-8.69033,-0.376878,3.32822,9.31348,1.00954,5.16756,-1.33599,36.6755,7,0,0,0
0,1406031262,277152,2.8129,17.8224,-36.4318,40.6549,-8.69983,-0.576071,3.30888,9.32564,-0.532447,3.94161,-0.191712,36.6907,7,0,0,0
0,1406031263,278158,2.30807,17.6852,-35.9843,40.1618,-8.69906,-0.487856,3.32519,9.32569,1.19047,4.43513,-2.12517,36.7812,8,0,0,0
0,1406031264,279162,2.6924,17.666,-35.9856,40.1783,-8.70205,-0.446434,3.30074,9.31772,-0.95639,3.97182,-1.52696,36.7499,8,0,0,0
0,1406031265,280164,2.58228,17.7869,-35.7868,40.0467,-8.68916,-0.513239,3.28989,9.30528,-0.0150326,5.35547,-2.16117,36.757,8,0,0,0
0,1406031266,281167,2.88028,17.8366,-36.0446,40.3194,-8.71157,-0.47138,3.3276,9.33737,0.791956,5.14135,-1.50803,36.7716,8,0,0,0
0,1406031267,282171,2.813,17.5412,-35.8246,39.9876,-8.68746,-0.491057,3.33326,9.31792,2.23139,4.37233,-1.43688,36.7724,7,0,0,0
0,1406031268,283173,3.19248,17.8207,-35.8498,40.1619,-8.70015,-0.497861,3.34227,9.33334,1.16939,4.00893,-1.30116,36.7451,7,0,0,0
0,1406031269,284175,2.87273,18.3224,-36.2073,40.6809,-8.68918,-0.488277,3.31538,9.313,0.141348,4.30664,-0.515878,36.7839,8,0,0,0
0,1406031270,285177,2.93094,17.6322,-36.0784,40.2634,-8.71781,-0.478677,3.34961,9.35143,1.32096,3.95198,-1.65339,36.7445,7,0,0,0
0,1406031271,286178,3.05966,18.1367,-36.0943,40.5105,-8.72251,-0.498824,3.32937,9.34963,1.42155,3.98468,-1.77088,36.731,8,0,0,0
0,1406031272,287182,2.47514,17.8968,-35.8429,40.1389,-8.71452,-0.438928,3.28084,9.32198,0.512744,4.89536,-2.08833,36.7927,8,0,0,0
0,1406031273,288185,2.87995,17.8989,-36.0106,40.3166,-8.69575,-0.490005,3.29837,9.31319,1.0099,4.23213,-1.67827,36.6965,8,0,0,0
0,1406031274,289191,2.91329,18.1012,-36.1837,40.5636,-8.70967,-0.54332,3.34064,9.34416,1.47799,4.08164,-0.602257,36.8551,8,0,0,0
0,1406031275,290198,2.91544,18.1802,-36.1604,40.5782,-8.70443,-0.51515,3.30841,9.32621,0.675325,4.69989,-0.227004,36.7885,8,0,0,0
0,1406031276,291211,2.81091,17.9248,-36.6429,40.8889,-8.69914,-0.457886,3.31561,9.32083,2.43035,4.65501,-0.708195,36.8416,9,0,0,0
0,1406031277,292214,2.73492,17.9044,-36.2332,40.5079,-8.70634,-0.516873,3.31193,9.32933,0.497494,3.7967,-1.0095,36.8691,8,0,0,0
0,1406031278,293219,2.73417,18.0264,-36.4489,40.7548,-8.71543,-0.482587,3.28269,9.32564,1.21606,5.09172,-1.70103,36.7808,7,0,0,0
0,1406031279,294220,2.93346,17.9139,-35.7855,40.1262,-8.70475,-0.478057,3.32962,9.33207,-0.723649,3.89874,-1.71129,36.8274,8,0,0,0
0,1406031280,295226,2.71767,18.2621,-36.0074,40.4651,-8.6955,-0.494771,3.32151,9.32142,0.570508,4.52102,-2.24063,36.8087,7,0,0,0
0,1406031281,296237,2.78061,17.6563,-35.9778,40.173,-8.69799,-0.498038,3.30362,9.31756,1.45861,4.24475,-0.976038,36.905,8,0,0,0
0,1406031282,297243,2.6106,18.1784,-36.2005,40.5924,-8.66379,-0.558581,3.35619,9.30791,-1.19872,4.61632,-0.55301,36.8949,8,0,0,0
0,1406031283,298247,2.90076,17.519,-36.0969,40.2283,-8.70325,-0.483472,3.33883,9.33424,0.599504,5.14745,-0.786556,36.8824,8,0,0,0
0,1406031284,299252,2.70138,18.1222,-36.4061,40.7568,-8.69069,-0.474807,3.37133,9.33378,0.228875,4.84389,-1.16411,36.9471,7,0,0,0
0,1406031285,300255,2.61355,17.9704,-35.9022,40.2335,-8.70764,-0.487082,3.32468,9.33347,-0.0416163,4.8207,-0.936762,36.9264,6,0,0,0
0,1406031286,301263,2.81564,18.0324,-35.925,40.2952,-8.72142,-0.526746,3.29596,9.3383,-1.04464,4.73511,-1.98042,36.8616,8,0,0,0
0,1406031287,302266,2.83646,17.6432,-36.3585,40.5126,-8.70721,-0.503614,3.31772,9.33147,1.29804,4.16002,-2.23819,36.897,7,0,0,0
0,1406031288,303270,2.52568,17.8948,-36.0516,40.3277,-8.68216,-0.498173,3.33137,9.31268,1.51409,4.06839,-1.56323,36.9815,7,0,0,0
0,1406031289,304274,3.07481,17.6653,-35.9586,40.1813,-8.71195,-0.491007,3.31233,9.33331,-0.217644,4.61319,-0.0220027,36.982,6,0,0,0
0,1406031290,305277,2.80431,17.9117,-36.1584,40.449,-8.70999,-0.505656,3.33394,9.33996,1.02841,4.12638,-0.889548,36.8981,8,0,0,0
0,1406031291,306281,2.93731,17.6844,-36.3328,40.5147,-8.69991,-0.472456,3.31967,9.32373,0.829162,5.32995,-1.74495,36.9282,8,0,0,0
0,1406031292,307290,3.18436,17.6987,-35.9678,40.2128,-8.69625,-0.493581,3.31691,9.32043,0.0734315,4.21461,-1.1134,36.9088,7,0,0,0
0,1406031293,308295,2.64449,17.977,-35.0637,39.4922,-8.70675,-0.466317,3.29488,9.32101,1.56927,4.78088,-2.29307,36.9094,8,0,0,0
0,1406031294,309298,2.19779,18.5031,-35.3709,39.9787,-8.70523,-0.493187,3.33643,9.33574,0.428234,3.72929,-1.79304,36.89,13,0,0,0
0,1406031295,310300,3.1738,17.86,-34.9058,39.3379,-8.71275,-0.476602,3.31834,9.33545,-0.167963,4.1516,-1.94673,36.9601,12,0,0,0
0,1406031296,311302,2.39189,18.1667,-36.1112,40.4941,-8.73206,-0.454283,3.36497,9.369,1.14935,4.51788,-0.911753,36.9828,10,0,0,0
0,1406031297,312307,1.8685,17.5873,-36.0839,40.1852,-8.72082,-0.494992,3.33772,9.35084,0.87254,4.19344,-0.443445,36.9113,11,0,0,0
0,1406031298,313310,2.38503,17.6948,-36.0212,40.2035,-8.6599,-0.512757,3.29949,9.28135,0.95301,4.73207,-0.898393,36.9494,13,0,0,0
0,1406031299,314315,3.21805,17.4088,-35.757,39.8997,-8.70189,-0.474625,3.29402,9.31658,1.08342,3.6204,-1.67582,36.9827,11,0,0,0
0,1406031300,315316,2.36954,18.2631,-36.3335,40.7342,-8.69728,-0.494821,3.31294,9.32004,0.43923,5.08171,-2.15643,37.0176,12,0,0,0
0,1406031301,316320,2.50678,17.5409,-35.6401,39.8018,-8.68591,-0.498912,3.32907,9.3154,0.481943,5.20381,-1.57779,37.0154,11,0,0,0
0,1406031302,317321,2.38833,17.9548,-35.718,40.0482,-8.69814,-0.48624,3.35222,9.33442,1.16913,4.86021,0.304226,36.9783,11,0,0,0
0,1406031303,318331,2.67464,17.621,-35.677,39.8811,-8.69158,-0.487744,3.31181,9.31394,1.00876,4.43283,-1.36422,37.0029,12,0,0,0
0,1406031304,319336,2.59694,17.793,-36.0767,40.3096,-8.71666,-0.478226,3.31041,9.33637,1.26356,4.35419,-1.80873,37.0422,6,0,0,0
0,1406031305,320338,2.5238,17.6351,-36.0181,40.1829,-8.69679,-0.507796,3.3265,9.3251,0.301398,4.75767,-1.47356,37.1218,7,0,0,0
0,1406031306,321345,3.07378,17.4923,-36.196,40.3185,-8.69072,-0.49621,3.29571,9.30787,1.87485,5.2331,-0.29438,37.029,8,0,0,0
0,1406031307,322349,2.54488,18.0113,-36.1188,40.4407,-8.70839,-0.49841,3.32966,9.33655,0.0821229,4.18807,-0.917245,36.9653,8,0,0,0
0,1406031308,323351,2.6717,17.9912,-36.1158,40.4372,-8.69852,-0.486669,3.32384,9.32464,-0.109369,4.18813,-0.25334,37.0487,8,0,0,0
0,1406031309,324361,2.83258,17.7518,-35.8817,40.1328,-8.70946,-0.484798,3.31726,9.33241,2.65545,3.84835,-1.09257,37.0879,7,0,0,0
0,1406031310,325369,2.738,17.99,-36.1729,40.4922,-8.71696,-0.462248,3.2989,9.33176,0.739691,4.05881,-2.50026,37.202,8,0,0,0
0,1406031311,326372,2.56117,17.7896,-35.8686,40.1196,-8.70818,-0.477802,3.34127,9.33942,-0.0418628,3.64079,-1.77442,37.0954,6,0,0,0
0,1406031312,327377,3.1734,17.5791,-35.7072,39.9261,-8.70528,-0.47424,3.31817,9.3283,0.844386,4.04402,-1.31461,37.0665,8,0,0,0
0,1406031313,328381,2.93617,17.8251,-36.6237,40.8369,-8.68759,-0.508495,3.30165,9.30772,0.259214,4.87013,-1.06452,37.1219,7,0,0,0
0,1406031314,329383,2.62983,18.0979,-35.9653,40.3479,-8.69525,-0.485874,3.30691,9.31553,1.72237,4.70316,-0.432853,37.1099,8,0,0,0
0,1406031315,330388,2.548,17.8036,-35.8062,40.0693,-8.69759,-0.476927,3.33732,9.32808,0.183718,5.04184,-0.740998,37.1613,8,0,0,0
0,1406031316,331392,2.6211,18.0323,-35.8608,40.2247,-8.69085,-0.461287,3.29356,9.30544,1.53793,4.75834,-2.02297,37.088,6,0,0,0
0,1406031317,332395,3.05041,17.7896,-35.772,40.0676,-8.69625,-0.488116,3.31234,9.31851,0.129396,4.38457,-0.52224,37.14,7,0,0,0
0,1406031318,333402,3.05863,17.5367,-36.18,40.3222,-8.68643,-0.492768,3.31375,9.3101,0.919416,4.81421,-1.57138,37.2315,7,0,0,0
0,1406031319,334407,3.05355,18.2281,-35.8988,40.3771,-8.69956,-0.476439,3.2873,9.31213,0.129442,5.45589,-1.90556,37.2118,8,0,0,0
0,1406031320,335414,2.63044,17.6897,-35.8323,40.0475,-8.68286,-0.482671,3.34042,9.31577,0.134334,5.01883,-0.794904,37.1503,7,0,0,0
0,1406031321,336425,2.56962,18.0403,-35.5533,39.9511,-8.70031,-0.481012,3.27474,9.30864,0.806352,4.85275,-1.38514,37.254,8,0,0,0
0,1406031322,337429,2.62969,17.9482,-36.2795,40.5618,-8.72776,-0.452067,3.30911,9.34496,1.06399,5.78786,-0.34583,37.233,8,0,0,0
0,1406031323,338436,2.87786,18.2142,-36.3109,40.7249,-8.71612,-0.517927,3.3076,9.33698,0.179363,5.26418,-1.48095,37.2579,8,0,0,0
0,1406031324,339437,3.10033,17.7068,-35.6657,39.9398,-8.71283,-0.454168,3.33562,9.34056,1.51787,4.62821,-0.933456,37.1829,8,0,0,0
0,1406031325,340438,2.91757,17.732,-35.8233,40.078,-8.69588,-0.492681,3.31034,9.31769,0.174741,3.86662,-2.0552,37.2621,8,0,0,0
0,1406031326,341440,2.70524,17.747,-36.0041,40.2314,-8.63538,-0.441024,3.46266,9.3142,-0.116191,5.15232,-1.48282,37.2755,7,0,0,0
0,1406031327,342448,2.70617,17.9762,-35.6916,40.0544,-8.70777,-0.531784,3.31547,9.33276,2.14612,4.61753,-2.05781,37.2997,8,0,0,0
0,1406031328,343454,2.77225,17.9603,-35.8813,40.2209,-8.71013,-0.479957,3.31242,9.33107,0.781069,4.09989,-2.4565,37.2998,6,0,0,0
0,1406031329,344459,3.36639,17.4561,-36.0267,40.1743,-8.72762,-0.4833,3.28592,9.33821,0.96453,4.47552,-0.788884,37.2424,7,0,0,0
0,1406031330,345465,2.76488,17.6959,-36.2532,40.4362,-8.72622,-0.506294,3.2826,9.33695,0.73301,5.29537,-0.890709,37.418,7,0,0,0
0,1406031331,346467,2.79309,17.9323,-36.1188,40.422,-8.72185,-0.513472,3.30032,9.33951,1.21017,5.55568,-1.41946,37.3103,7,0,0,0
0,1406031332,347470,3.10172,17.6329,-35.569,39.8208,-8.76483,-0.52553,3.24533,9.36112,1.14755,4.69062,-0.659277,37.3699,8,0,0,0
0,1406031333,348472,2.93051,17.9744,-35.5811,39.971,-8.71494,-0.489392,3.33945,9.34567,1.59944,4.98398,-1.46363,37.4433,7,0,0,0
0,1406031334,349479,3.10158,17.6865,-35.7991,40.0501,-8.69796,-0.503893,3.33853,9.33028,0.578681,3.51362,-0.110041,37.3386,7,0,0,0
0,1406031335,350487,2.85905,17.9605,-35.9239,40.2652,-8.69419,-0.481839,3.34538,9.32805,2.05412,4.83187,-0.278208,37.2892,7,0,0,0
0,1406031336,351488,2.9546,17.7049,-35.8297,40.0745,-8.69796,-0.508552,3.32467,9.32558,1.23764,4.68293,-1.67196,37.4131,7,0,0,0
0,1406031337,352495,2.60572,17.9963,-35.9563,40.2929,-8.70856,-0.495686,3.30032,9.32613,1.92194,5.08473,-2.26638,37.4716,7,0,0,0
0,1406031338,353496,3.08208,18.0281,-35.3701,39.819,-8.72125,-0.468672,3.35735,9.3569,1.23827,3.71197,-0.595123,37.4245,7,0,0,0
0,1406031339,354498,2.5847,18.0074,-35.6949,40.0633,-8.69736,-0.48169,3.30053,9.31502,-0.549392,5.27383,-1.03928,37.4013,8,0,0,0
0,1406031340,355503,2.85489,17.774,-35.7035,39.985,-8.70024,-0.497234,3.31661,9.32424,1.98137,4.9249,-1.896,37.5324,8,0,0,0
0,1406031341,356505,2.80297,17.7316,-35.8986,40.1369,-8.71783,-0.487211,3.31492,9.33952,0.691756,4.39756,-1.52801,37.4969,8,0,0,0
0,1406031342,357511,2.74206,17.6959,-35.9536,40.1662,-8.69736,-0.470236,3.32063,9.32157,0.368733,4.66136,-1.65652,37.4196,6,0,0,0
0,1406031343,358515,3.0089,17.5705,-35.8717,40.0569,-8.69277,-0.478006,3.3317,9.32164,1.40966,3.62856,-0.588867,37.3032,7,0,0,0
0,1406031344,359516,2.38377,17.5011,-35.7682,39.8916,-8.71118,-0.484267,3.30667,9.33023,1.1914,5.41719,-1.16707,37.4689,6,0,0,0
0,1406031345,360522,2.70486,17.866,-35.5993,39.9226,-8.71624,-0.481637,3.31106,9.33638,2.29943,4.21074,-2.30928,37.4814,7,0,0,0
0,1406031346,361530,3.1549,17.5918,-35.7437,39.9629,-8.69245,-0.487913,3.32169,9.31828,1.31959,3.51918,-1.83331,37.4033,8,0,0,0
0,1406031347,362540,2.79233,17.9874,-35.6106,39.9932,-8.69335,-0.482543,3.33308,9.32291,0.602572,3.80698,-0.576532,37.5632,8,0,0,0
0,1406031348,363542,2.55042,17.7235,-35.6913,39.9311,-8.71655,-0.476367,3.33839,9.34612,-0.256077,4.86665,0.0192576,37.5714,8,0,0,0
0,1406031349,364549,2.53014,18.1591,-36.1457,40.5298,-8.7195,-0.4917,3.31907,9.34279,0.642496,4.09751,-1.02544,37.4977,8,0,0,0
0,1406031350,365556,2.82358,18.4886,-36.2024,40.7482,-8.70918,-0.494015,3.32592,9.33572,0.26062,4.52331,-0.975458,37.5487,8,0,0,0
0,1406031351,366559,3.10918,17.6526,-35.5438,39.8076,-8.64436,-0.462164,3.42777,9.31065,0.154192,4.79395,-0.954884,37.5059,7,0,0,0
0,1406031352,367560,2.76812,18.0906,-35.8975,40.2934,-8.65097,-0.516739,3.39012,9.30587,1.29483,3.63059,-1.03718,37.6187,7,0,0,0
0,1406031353,368561,2.75705,17.8629,-35.6094,39.9339,-8.7111,-0.465201,3.32238,9.33477,-0.456103,4.18376,-0.862867,37.6182,8,0,0,0
0,1406031354,369568,2.22408,17.3991,-36.1881,40.2151,-8.70853,-0.485241,3.28578,9.32043,-0.865742,5.42728,-0.560184,37.5953,8,0,0,0
0,1406031355,370572,2.88737,17.6517,-35.9611,40.1636,-8.71028,-0.486223,3.30256,9.32803,1.25251,4.94146,-0.0661752,37.4867,8,0,0,0
0,1406031356,371575,2.61456,17.9288,-36.0028,40.3048,-8.71355,-0.470544,3.34727,9.34621,0.953264,5.3183,-1.21968,37.5465,7,0,0,0
0,1406031357,372583,2.91707,17.5196,-36.007,40.149,-8.70164,-0.486776,3.31128,9.3231,1.14214,3.48238,-1.28993,37.5649,8,0,0,0
0,1406031358,373585,2.71392,18.0649,-36.2742,40.6143,-8.69905,-0.498197,3.30328,9.31844,0.841147,5.12324,-0.203283,37.5457,7,0,0,0
0,1406031359,374588,2.62494,17.9935,-36.0561,40.3819,-8.69958,-0.474028,3.30681,9.31893,0.784808,4.99066,-1.25961,37.6275,8,0,0,0
0,1406031360,375594,3.00795,17.4,-36.075,40.1648,-8.68371,-0.480314,3.32591,9.31124,0.888827,4.27733,-1.41006,37.6134,7,0,0,0
0,1406031361,376595,2.85892,17.8051,-35.8844,40.1607,-8.70509,-0.491504,3.3389,9.3364,0.354213,4.86553,-1.20711,37.59,8,0,0,0
0,1406031362,377601,2.72134,18.0575,-36.1005,40.4565,-8.7163,-0.494066,3.3198,9.34019,-0.103199,3.74091,0.00340422,37.7395,8,0,0,0
0,1406031363,378620,2.76671,17.4988,-35.8159,39.958,-8.70717,-0.496287,3.33718,9.33798,0.4286,4.07448,-1.30428,37.5896,8,0,0,0
0,1406031364,379626,3.212,18.0401,-35.0422,39.5439,-8.7083,-0.488043,3.32359,9.33375,1.12888,5.44996,-0.18118,37.6818,9,0,0,0
0,1406031365,380629,2.64647,18.0275,-35.8343,40.2007,-8.69372,-0.486702,3.33045,9.32253,0.516303,5.82977,-0.219474,37.5971,7,0,0,0
0,1406031366,381635,2.71615,18.0021,-35.8332,40.1929,-8.6987,-0.482863,3.32081,9.32354,0.896541,4.58905,-1.5451,37.774,8,0,0,0
0,1406031367,382637,2.56823,17.9171,-36.0929,40.3772,-8.71874,-0.476074,3.33772,9.34791,0.61048,4.85119,-1.58824,37.687,7,0,0,0
0,1406031368,383645,2.68807,17.9536,-36.3548,40.6353,-8.72038,-0.499988,3.32085,9.34468,0.625646,3.93185,-0.601195,37.6023,8,0,0,0
0,1406031369,384652,2.77835,18.0496,-36.0155,40.3809,-8.69516,-0.494016,3.28697,9.30882,0.737695,5.18179,-1.59177,37.7733,8,0,0,0
0,1406031370,385655,3.17294,17.6453,-35.9503,40.1727,-8.68216,-0.47172,3.32204,9.30797,0.309816,4.17655,-1.93477,37.6471,9,0,0,0
0,1406031371,386656,2.76019,17.941,-36.0092,40.3257,-8.70617,-0.489217,3.3343,9.33564,0.404565,4.2147,-0.324314,37.6399,7,0,0,0
0,1406031372,387662,2.74769,17.8112,-36.0657,40.3178,-8.72441,-0.492605,3.30359,9.34193,1.31276,4.46508,-1.51853,37.7981,8,0,0,0
0,1406031373,388671,2.73474,17.8849,-35.9032,40.2043,-8.70919,-0.470481,3.32137,9.33289,1.18097,4.98901,-1.22455,37.7363,7,0,0,0
0,1406031374,389678,3.0031,17.732,-35.986,40.2298,-8.6986,-0.494531,3.35202,9.33521,1.03015,4.1747,-2.00625,37.6995,7,0,0,0
0,1406031375,390679,2.88341,17.8013,-36.0027,40.2665,-8.69396,-0.503343,3.30787,9.3156,1.2055,5.41812,-1.4119,37.751,7,0,0,0
0,1406031376,391685,2.64344,17.8884,-35.877,40.1764,-8.70954,-0.497328,3.31453,9.33218,1.66905,4.4678,-1.52164,37.8128,8,0,0,0
0,1406031377,392689,2.78438,17.3443,-36.0248,40.0794,-8.68611,-0.501131,3.31383,9.31027,0.662797,4.06987,-0.972415,37.8288,7,0,0,0
0,1406031378,393705,2.8444,17.7839,-35.8998,40.1641,-8.71034,-0.501779,3.29086,9.32478,0.304797,3.65461,-0.242704,37.8016,8,0,0,0
0,1406031379,394707,2.86386,17.6536,-36.135,40.3186,-8.70213,-0.503139,3.23355,9.2971,-0.730925,5.66309,-1.37439,37.9099,7,0,0,0
0,1406031380,395716,3.01932,17.584,-35.6423,39.8583,-8.70272,-0.493717,3.30578,9.32251,-0.0945798,4.70843,-0.899229,37.8815,6,0,0,0
0,1406031381,396720,2.68489,18.0697,-36.1646,40.5167,-8.71487,-0.494878,3.32286,9.33998,0.651409,3.6529,-1.23041,37.8811,8,0,0,0
0,1406031382,397729,2.88533,17.6385,-35.6904,39.9154,-8.73057,-0.510681,3.32943,9.35782,0.746652,5.18063,-1.32046,37.937,7,0,0,0
0,1406031383,398730,2.83437,17.707,-36.1138,40.3209,-8.69948,-0.485047,3.30423,9.31849,2.07918,5.39084,-1.59403,37.9099,7,0,0,0
0,1406031384,399737,2.81408,17.8145,-35.7353,40.0286,-8.72481,-0.488106,3.29449,9.33886,0.10302,5.03357,-1.08441,37.845,6,0,0,0
0,1406031385,400740,2.70217,17.7061,-35.7331,39.9707,-8.71198,-0.494231,3.30535,9.33104,0.246421,5.73563,-1.2289,37.8599,7,0,0,0
0,1406031386,401743,2.88877,17.7205,-35.5915,39.8637,-8.70222,-0.486679,3.32029,9.32683,0.490369,3.98113,-1.92146,37.9391,7,0,0,0
0,1406031387,402753,3.08325,17.4272,-36.2783,40.3649,-8.69214,-0.474636,3.30333,9.31078,0.208682,4.33474,-1.55581,37.8931,7,0,0,0
0,1406031388,403760,2.94092,17.796,-35.8255,40.11,-8.70883,-0.494971,3.31747,9.33244,1.32856,5.87233,-1.79174,38.0013,8,0,0,0
0,1406031389,404761,2.53749,17.7245,-36.1101,40.3055,-8.70526,-0.482991,3.31323,9.32697,0.75838,5.14912,-1.84557,37.8918,7,0,0,0
0,1406031390,405763,2.80089,17.5223,-36.1249,40.2478,-8.70544,-0.491072,3.30211,9.32361,0.431105,5.0842,-0.402081,37.9173,7,0,0,0
0,1406031391,406772,2.94574,17.6458,-36.1594,40.3429,-8.69738,-0.469446,3.32861,9.32439,0.0229032,4.8786,0.745165,38.068,7,0,0,0
0,1406031392,407780,2.71005,17.6342,-36.1034,40.2712,-8.70333,-0.478765,3.30528,9.32212,0.664058,3.91001,-1.53499,37.9454,7,0,0,0
0,1406031393,408785,2.74489,18.1074,-36.2273,40.5935,-8.70114,-0.48464,3.32629,9.32786,0.720492,4.88445,-1.85751,37.9471,6,0,0,0
0,1406031394,409791,2.71176,17.9382,-36.0647,40.3707,-8.69358,-0.479425,3.33221,9.32265,0.0205906,4.36934,-1.21275,38.009,7,0,0,0
0,1406031395,410799,2.97756,17.7428,-35.578,39.8682,-8.7077,-0.522562,3.30008,9.32671,0.68844,6.36092,-1.19708,38.0055,7,0,0,0
0,1406031396,411802,2.86019,17.7944,-36.1212,40.3678,-8.69023,-0.508473,3.33653,9.32261,-0.610815,5.07791,-1.092,37.9696,9,0,0,0
0,1406031397,412806,3.29469,17.7024,-35.7049,39.9884,-8.70542,-0.502193,3.29669,9.32227,0.292965,4.83678,-0.408209,38.1007,7,0,0,0
0,1406031398,413814,2.69849,18.1417,-35.9411,40.3506,-8.69975,-0.505091,3.30147,9.31882,0.400689,6.18019,-0.723859,38.0094,8,0,0,0
0,1406031399,414822,2.63882,18.033,-35.9395,40.2964,-8.7167,-0.458078,3.31405,9.33668,1.20033,5.05527,-1.28501,38.0584,7,0,0,0
0,1406031400,415836,2.77279,17.5801,-36.0162,40.1736,-8.71096,-0.492881,3.28551,9.323,0.470734,4.65174,0.536893,38.0421,8,0,0,0
0,1406031401,416840,2.77753,17.7437,-36.1281,40.3459,-8.71062,-0.502538,3.3359,9.34108,1.45383,5.96933,-1.38058,38.1057,7,0,0,0
0,1406031402,417848,2.61301,17.6749,-35.9735,40.1662,-8.70162,-0.483326,3.31724,9.32501,-0.403845,4.68455,0.664679,38.0599,8,0,0,0
0,1406031403,418850,3.16111,17.9743,-35.4318,39.8557,-8.71309,-0.492808,3.31619,9.33584,0.45279,4.58757,-1.0728,38.0848,7,0,0,0
0,1406031404,419852,3.20929,17.8934,-35.9076,40.2471,-8.7147,-0.478422,3.3086,9.3339,1.01938,4.4799,-0.974444,38.1656,7,0,0,0
0,1406031405,420860,2.91059,17.6511,-35.623,39.8627,-8.70473,-0.483173,3.29851,9.32127,-1.40853,5.5792,-1.7779,38.0429,7,0,0,0
0,1406031406,421861,2.93636,18.1073,-35.8718,40.29,-8.70414,-0.492273,3.31092,9.32559,1.28672,4.73097,-0.971402,38.1052,8,0,0,0
0,1406031407,422866,2.81867,18.1768,-36,40.427,-8.71183,-0.492072,3.30266,9.32983,0.347188,5.1992,-2.13623,38.0505,8,0,0,0
0,1406031408,423870,2.70222,17.8102,-35.2716,39.6054,-8.70687,-0.478273,3.32242,9.3315,1.79726,5.00037,0.0145752,38.1285,8,0,0,0
0,1406031409,424871,2.95956,18.1089,-35.7205,40.1577,-8.7076,-0.486558,3.32466,9.3334,1.55762,4.80577,-1.23944,38.0593,8,0,0,0
0,1406031410,425872,3.19205,17.9342,-35.7281,40.1039,-8.68695,-0.490543,3.30584,9.30765,0.563463,4.52025,-1.85952,38.1192,7,0,0,0
0,1406031411,426873,2.87079,17.9809,-36.2367,40.5543,-8.70666,-0.494812,3.31465,9.3294,2.73944,3.62541,-1.68027,38.1758,8,0,0,0
0,1406031412,427875,2.58154,17.9665,-36.1031,40.4091,-8.70602,-0.473653,3.28943,9.31877,0.454322,4.89047,-1.01258,38.1543,8,0,0,0
0,1406031413,428879,3.00044,18.0508,-35.8564,40.2556,-8.70129,-0.487291,3.30844,9.32178,0.145673,4.14471,-2.04767,38.1978,8,0,0,0
0,1406031414,429882,2.97354,17.6796,-36.0051,40.2216,-8.68715,-0.501449,3.32062,9.31368,0.622548,6.19833,-1.56215,38.09,8,0,0,0
0,1406031415,430887,2.95814,17.715,-35.8812,40.1253,-8.7062,-0.484187,3.3053,9.32509,0.224403,4.39981,-2.04502,38.2411,7,0,0,0
0,1406031416,431890,3.00372,17.5749,-35.9673,40.144,-8.70593,-0.483294,3.28934,9.31915,1.36106,5.02511,-0.816145,38.1202,8,0,0,0
0,1406031417,432898,2.93125,17.9394,-35.9962,40.3254,-8.7099,-0.490238,3.29295,9.32449,-0.26082,4.18803,0.457384,38.065,8,0,0,0
0,1406031418,433904,2.75552,17.8764,-35.9308,40.2266,-8.72831,-0.49594,3.3052,9.34632,0.794937,3.56593,-0.881698,38.2787,8,0,0,0
0,1406031419,434907,2.79289,17.7877,-35.855,40.1221,-8.70126,-0.463169,3.31969,9.32452,1.03981,4.73885,-1.11369,38.2245,8,0,0,0
0,1406031420,435908,2.6182,18.0841,-35.9607,40.3368,-8.68778,-0.512915,3.332,9.31895,0.83741,5.0519,-0.708132,38.103,8,0,0,0
0,1406031421,436909,2.87426,17.5114,-35.6507,39.8231,-8.69008,-0.478319,3.28432,9.30231,0.932066,5.44533,-0.192509,38.2003,7,0,0,0
0,1406031422,437910,2.62055,17.5886,-35.7914,39.9656,-8.6998,-0.474753,3.31605,9.32245,-0.574134,4.41384,-1.48428,38.1629,7,0,0,0
0,1406031423,438913,2.504,17.7322,-36.1616,40.353,-8.69364,-0.49356,3.29837,9.31141,0.409911,4.73241,-1.48207,38.1834,6,0,0,0
0,1406031424,439919,3.00395,17.7359,-36.1032,40.3364,-8.70418,-0.490192,3.32407,9.33019,-0.506153,4.7564,-0.588237,38.2411,8,0,0,0
0,1406031425,440920,2.94934,17.8,-35.965,40.237,-8.69648,-0.496801,3.32478,9.32361,0.85234,4.08945,-0.846345,38.2432,7,0,0,0
0,1406031426,441926,2.95045,17.5108,-35.9184,40.0682,-8.70347,-0.486307,3.33555,9.33343,-0.505447,4.48328,-0.898091,38.2003,7,0,0,0
0,1406031427,442929,2.77658,17.83,-35.4258,39.7568,-8.70634,-0.494102,3.34133,9.33858,1.03384,4.8863,-1.05411,38.2975,7,0,0,0
0,1406031428,443933,2.79539,18.0668,-36.0141,40.3886,-8.71938,-0.504769,3.34155,9.35138,0.258867,4.53312,-2.23144,38.3022,7,0,0,0
0,1406031429,444934,2.93271,18.1716,-36.0107,40.4423,-8.7065,-0.464829,3.30958,9.32591,-0.578386,4.4698,-2.65688,38.2886,8,0,0,0
0,1406031430,445935,2.69179,17.4704,-35.7488,39.8802,-8.71183,-0.495492,3.3024,9.32991,0.420839,5.02345,0.54986,38.3164,7,0,0,0
0,1406031431,446939,2.67377,17.6682,-35.9036,40.1047,-8.69864,-0.47871,3.3255,9.32494,0.808832,5.26493,-0.811978,38.3004,7,0,0,0
0,1406031432,447942,3.11759,17.4986,-35.6896,39.8707,-8.70122,-0.471816,3.32951,9.32842,1.79163,3.47135,-1.15047,38.3542,7,0,0,0
0,1406031433,448944,2.47533,17.9218,-36.1202,40.3979,-8.69625,-0.490937,3.27385,9.30505,-0.00469707,5.19038,-0.970407,38.3064,8,0,0,0
0,1406031434,449945,3.03783,17.5775,-36.0377,40.2109,-8.72296,-0.483134,3.31354,9.3436,0.655895,4.41822,-0.782587,38.2716,6,0,0,0
0,1406031435,450952,2.94105,17.8409,-35.9157,40.2105,-8.71098,-0.477794,3.29509,9.32562,0.958645,4.97029,0.0728498,38.2965,7,0,0,0
0,1406031436,451960,3.18612,17.7151,-35.661,39.946,-8.70962,-0.476423,3.35986,9.34736,0.638763,4.53176,-0.966883,38.3044,7,0,0,0
0,1406031437,452967,2.58834,17.834,-35.8056,40.0848,-8.69091,-0.491547,3.30018,9.30939,0.424431,4.29752,-1.48017,38.3617,8,0,0,0
0,1406031439,454008,2.79114,17.8506,-35.7991,40.1,-8.70609,-0.477141,3.32517,9.33168,0.517934,5.51446,-1.31947,38.3901,4,0,0,0
0,1406031440,455011,3.04244,17.4535,-35.825,39.9664,-8.68043,-0.512996,3.32182,9.30847,0.655715,5.30076,-0.92942,38.4599,8,0,0,0
0,1406031441,456016,3.16383,17.8128,-35.6232,39.954,-8.6877,-0.490429,3.30675,9.30867,-0.427556,4.64219,-0.763313,38.3536,8,0,0,0
0,1406031442,457023,3.09926,17.659,-35.6108,39.8695,-8.71628,-0.474094,3.29277,9.32955,1.20651,4.14955,-0.895703,38.3533,8,0,0,0
0,1406031443,458039,3.07614,17.928,-35.7276,40.0916,-8.70889,-0.494081,3.33326,9.33807,0.522188,4.89077,-1.06257,38.4043,7,0,0,0
0,1406031444,459044,3.30682,17.5986,-35.6158,39.8639,-8.7228,-0.488829,3.29882,9.33855,0.924839,4.44525,-0.841069,38.3622,8,0,0,0
0,1406031445,460049,2.69135,17.6721,-35.6975,39.9231,-8.71151,-0.488059,3.32122,9.3359,1.26277,4.75634,-2.24291,38.4373,7,0,0,0
0,1406031446,461055,3.04509,17.6396,-36.0587,40.2574,-8.69572,-0.49572,3.29816,9.31338,-0.138118,5.42697,-0.518291,38.3443,8,0,0,0
0,1406031447,462060,3.0665,18.4176,-35.2159,39.8594,-8.71068,-0.483723,3.3287,9.33757,0.984108,6.10763,-0.726455,38.4108,8,0,0,0
0,1406031448,463068,2.90748,17.9847,-35.7418,40.1171,-8.73186,-0.464568,3.30327,9.34734,0.969208,3.92122,-1.45583,38.4063,8,0,0,0
0,1406031449,464070,2.82344,17.9674,-35.949,40.2881,-8.71298,-0.456434,3.31185,9.33234,1.14111,5.54721,-1.09506,38.3925,6,0,0,0
0,1406031450,465078,2.70689,17.8182,-36.0242,40.281,-8.70371,-0.488765,3.32877,9.33135,0.354537,4.45393,-2.1379,38.3719,7,0,0,0
0,1406031451,466085,2.80315,17.7446,-35.6739,39.9419,-8.70087,-0.48507,3.30659,9.32062,0.391182,4.41325,-0.874022,38.4703,7,0,0,0
0,1406031452,467090,2.80051,17.6374,-36.1505,40.3209,-8.71319,-0.477731,3.32451,9.33811,0.948233,5.20174,-0.971343,38.404,8,0,0,0
0,1406031453,468093,2.7798,17.9243,-36.3499,40.6241,-8.6801,-0.49822,3.29405,9.29748,0.121037,4.32575,-0.261065,38.4671,8,0,0,0
0,1406031454,469101,3.02525,17.8908,-36.1604,40.4575,-8.71622,-0.464894,3.27405,9.32244,0.616528,4.60373,-0.623072,38.445,7,0,0,0
0,1406031455,470105,2.75527,17.4046,-35.9869,40.0695,-8.69709,-0.490183,3.31038,9.3187,0.340293,4.69893,-2.2635,38.4525,7,0,0,0
0,1406031456,471113,3.11221,17.7331,-35.9305,40.1889,-8.71299,-0.501828,3.28675,9.32582,-0.800986,4.23636,-1.69851,38.5066,8,0,0,0
0,1406031457,472122,2.98219,17.8675,-35.7138,40.0452,-8.69682,-0.485788,3.30175,9.31516,0.870297,4.10089,-1.52311,38.4541,8,0,0,0
0,1406031458,473124,2.6956,17.9739,-35.9898,40.3187,-8.71348,-0.492076,3.33304,9.34216,1.26407,5.13799,-1.2956,38.4734,8,0,0,0
0,1406031459,474130,2.78187,17.839,-35.7409,40.0422,-8.71888,-0.488537,3.32238,9.34322,1.72404,4.47557,-0.957691,38.5271,7,0,0,0
0,1406031460,475132,2.85532,18.2945,-36.0912,40.5637,-8.70346,-0.490328,3.32355,9.32934,-0.122009,4.7868,-1.02293,38.416,8,0,0,0
0,1406031461,476140,3.09122,17.5965,-35.9661,40.159,-8.69624,-0.476889,3.3216,9.32122,1.2801,5.32552,-1.51184,38.4382,7,0,0,0
0,1406031462,477148,2.87323,17.5839,-35.7273,39.9235,-8.68501,-0.481736,3.3227,9.31138,0.718577,5.27489,-0.847039,38.4936,8,0,0,0
0,1406031463,478151,2.73175,17.8211,-36.0303,40.2894,-8.71002,-0.505433,3.31133,9.33192,0.805377,4.25765,-1.15059,38.5355,8,0,0,0
0,1406031464,479152,2.86873,17.7636,-35.8348,40.0987,-8.70393,-0.475884,3.28022,9.31368,1.59036,4.23033,-1.79283,38.5664,7,0,0,0
0,1406031465,480162,2.74262,17.7256,-36.0181,40.2371,-8.69669,-0.483323,3.32314,9.32251,-0.46263,4.86236,-1.23785,38.4929,8,0,0,0
0,1406031466,481167,2.85463,18.2893,-35.888,40.3806,-8.71287,-0.490662,3.29505,9.32803,0.288548,4.77104,-2.44044,38.47,8,0,0,0
0,1406031467,482179,2.90155,17.5962,-35.6811,39.8897,-8.69309,-0.509521,3.31391,9.31727,1.32744,4.40129,-1.4771,38.4804,7,0,0,0
0,1406031468,483187,3.01346,17.5879,-36.0852,40.2561,-8.71657,-0.488032,3.31775,9.33939,0.356968,5.43171,-1.65391,38.5584,7,0,0,0
0,1406031469,484199,2.80701,17.6057,-36.1694,40.3245,-8.70608,-0.490656,3.29392,9.32129,1.20839,4.4114,-1.15471,38.5553,8,0,0,0
0,1406031470,485200,2.87294,17.6781,-35.5514,39.8079,-8.67717,-0.484709,3.31689,9.30215,1.79095,4.64115,-1.31522,38.5564,8,0,0,0
0,1406031471,486207,3.09429,17.7296,-35.8375,40.1028,-8.69678,-0.478472,3.29996,9.31411,-0.164069,3.69785,-0.710849,38.5418,6,0,0,0
0,1406031472,487211,2.90619,17.9003,-35.8537,40.179,-8.69776,-0.49316,3.28703,9.31122,1.29859,5.30109,-0.848181,38.6522,7,0,0,0
0,1406031473,488217,2.74702,17.6217,-36.1233,40.286,-8.68548,-0.4916,3.29366,9.30201,-0.0881765,5.48542,-1.84621,38.6574,7,0,0,0
0,1406031474,489221,2.69512,17.6855,-35.8659,40.08,-8.69469,-0.464816,3.32077,9.31886,-0.394992,5.31195,-1.0681,38.5888,6,0,0,0
0,1406031475,490226,2.14023,17.5541,-35.9856,40.096,-8.70989,-0.497109,3.31312,9.33199,-0.139591,3.45776,-0.21343,38.6323,8,0,0,0
0,1406031476,491235,2.6724,17.7532,-35.935,40.1702,-8.68288,-0.487604,3.31865,9.30825,1.54029,4.66375,-0.718226,38.5367,8,0,0,0
0,1406031477,492242,2.70794,17.8543,-35.9126,40.1974,-8.64659,-0.483182,3.29,9.26397,0.5238,4.75809,-2.45216,38.6327,8,0,0,0
0,1406031478,493248,2.75862,17.8543,-36.083,40.3531,-8.68751,-0.483984,3.28963,9.30209,0.404444,4.71545,-0.925101,38.6198,7,0,0,0
0,1406031479,494253,2.74794,17.9512,-35.9877,40.3102,-8.7269,-0.548213,3.29251,9.34345,0.591249,4.45043,-2.20297,38.6237,8,0,0,0
0,1406031480,495258,2.88508,17.9733,-35.8305,40.1894,-8.72852,-0.440207,3.27294,9.33236,0.474722,5.10641,-1.35369,38.5074,8,0,0,0
0,1406031481,496264,2.96579,17.7728,-35.3836,39.7073,-8.67096,-0.507485,3.28644,9.28675,0.417064,5.6279,-0.683453,38.6346,7,0,0,0
0,1406031482,497266,2.72383,17.9472,-35.8919,40.2212,-8.699,-0.50564,3.31621,9.32338,0.974567,5.6689,-0.853356,38.6551,8,0,0,0
0,1406031483,498271,2.91821,17.7975,-35.6775,39.9769,-8.7024,-0.481446,3.28391,9.31384,-0.0639282,4.47926,-1.93554,38.6533,7,0,0,0
0,1406031484,499277,2.69431,17.6515,-35.7784,39.9866,-8.72624,-0.48618,3.26192,9.32866,0.875811,4.94733,-2.35167,38.6287,8,0,0,0
0,1406031485,500286,2.70712,17.961,-35.9219,40.253,-8.69693,-0.522195,3.30872,9.3197,1.20229,5.19662,-1.63721,38.5765,8,0,0,0
0,1406031486,501292,2.73374,17.8591,-36.0419,40.3167,-8.7005,-0.486945,3.3045,9.31963,0.0501466,4.08027,-1.27277,38.7353,7,0,0,0
0,1406031487,502293,3.05502,17.6232,-35.5296,39.7777,-8.68181,-0.505219,3.33935,9.3156,1.83357,4.96598,-0.238583,38.8216,8,0,0,0
0,1406031488,503297,3.06712,17.894,-35.6193,39.9792,-8.69355,-0.509626,3.30435,9.3143,1.06546,3.42528,-1.31114,38.6373,7,0,0,0
0,1406031489,504304,3.01117,17.887,-35.741,40.0804,-8.70642,-0.490723,3.31675,9.32971,1.08972,5.4598,-0.621361,38.6884,8,0,0,0
0,1406031490,505310,3.03368,17.8545,-35.1915,39.5782,-8.71095,-0.4945,3.31722,9.3343,1.65461,3.77324,-1.01194,38.7629,8,0,0,0
0,1406031491,506312,2.56233,17.9258,-35.8216,40.1383,-8.72056,-0.495032,3.29603,9.33579,2.19833,4.12529,-1.6891,38.7195,8,0,0,0
0,1406031492,507320,3.09929,17.7418,-35.5735,39.873,-8.7181,-0.495651,3.28168,9.32847,0.510207,6.00163,-1.34226,38.7201,7,0,0,0
0,1406031493,508325,3.18734,17.7821,-35.8682,40.1608,-8.68908,-0.482399,3.31376,9.31203,-0.409754,4.56661,-2.26265,38.8657,8,0,0,0
0,1406031494,509333,3.01337,17.522,-35.7614,39.9372,-8.71297,-0.493082,3.32265,9.33804,0.506425,4.73094,-1.42754,38.8214,7,0,0,0
0,1406031495,510340,2.93722,17.8019,-35.6543,39.9595,-8.69292,-0.483301,3.31176,9.31494,0.885634,4.79011,-0.205652,38.7866,8,0,0,0
0,1406031496,511347,2.73562,17.6691,-35.8157,40.0305,-8.70811,-0.519308,3.36045,9.34845,0.973886,5.26959,-1.03477,38.6075,6,0,0,0
0,1406031497,512355,2.88791,17.7558,-36.1076,40.3406,-8.7256,-0.492804,3.31271,9.34628,0.372868,4.87979,-0.684999,38.7498,7,0,0,0
0,1406031498,513359,2.97387,17.9151,-35.7978,40.1407,-8.69456,-0.505366,3.3102,9.31709,0.471694,4.0087,-1.09371,38.8734,7,0,0,0
0,1406031499,514361,2.97724,17.4875,-35.6269,39.7989,-8.72091,-0.511025,3.30202,9.33909,1.05294,5.02435,-1.07762,38.8274,8,0,0,0
0,1406031500,515369,2.71312,17.5357,-36.0701,40.1984,-8.71784,-0.504477,3.32009,9.34228,0.715273,5.21402,-0.508769,38.76,8,0,0,0
0,1406031501,516371,2.75127,18.1154,-35.9014,40.3069,-8.6991,-0.490006,3.26393,9.30418,-0.49654,4.2896,-0.591761,38.8401,7,0,0,0
0,1406031502,517374,2.63828,17.6088,-35.8,39.9833,-8.7018,-0.490391,3.25973,9.30524,1.4827,3.74611,-0.190968,38.8507,7,0,0,0
0,1406031503,518375,2.83613,17.742,-35.714,39.9789,-8.69336,-0.519206,3.31008,9.31669,2.19557,4.72951,-1.67729,38.8487,6,0,0,0
0,1406031504,519376,2.66112,17.6186,-36.1423,40.296,-8.72163,-0.615749,3.26575,9.33333,0.428395,5.23577,-1.1367,38.9367,7,0,0,0
0,1406031505,520379,2.74838,17.872,-35.7932,40.1013,-8.69905,-0.472519,3.32612,9.32522,-1.31861,4.958,-1.63463,38.9,7,0,0,0
0,1406031506,521380,2.76717,17.9671,-35.4313,39.8227,-8.70304,-0.463653,3.29957,9.31907,0.510064,4.67531,-1.28692,38.8235,8,0,0,0
0,1406031507,522383,2.87367,17.6573,-35.9497,40.155,-8.68191,-0.495542,3.28568,9.29607,0.756612,5.24234,-1.64755,38.9033,9,0,0,0
0,1406031508,523390,2.84912,18.0764,-36.1065,40.479,-8.7185,-0.495096,3.30432,9.33681,0.857627,4.30429,0.12325,38.8294,8,0,0,0
0,1406031509,524392,3.06121,17.5023,-35.4375,39.6424,-8.69226,-0.501985,3.2996,9.311,1.40357,4.27725,-1.52405,38.7754,8,0,0,0
0,1406031510,525398,2.84299,17.7852,-35.7651,40.0442,-8.71477,-0.477602,3.29546,9.32928,1.62179,4.51638,-1.96854,38.8286,7,0,0,0
0,1406031511,526400,2.81617,18.0888,-35.9131,40.3099,-8.72168,-0.478446,3.32005,9.34448,1.4826,6.21393,-2.35471,38.8866,8,0,0,0
0,1406031512,527406,2.83912,17.8466,-35.8419,40.1398,-8.70202,-0.477765,3.29979,9.31891,0.653288,5.04889,-1.05022,38.9049,8,0,0,0
0,1406031513,528412,2.70801,17.8453,-35.7507,40.0487,-8.69097,-0.509875,3.30864,9.31343,1.62273,4.65836,-1.81961,38.8657,8,0,0,0
0,1406031514,529413,2.75546,17.9066,-35.8718,40.1873,-8.68559,-0.53849,3.38974,9.33915,0.20749,4.3689,-1.53938,38.9773,7,0,0,0
0,1406031515,530414,2.47178,17.9987,-35.3253,39.7233,-8.71094,-0.492079,3.302,9.32876,-1.20509,4.94165,-1.18821,39.0335,7,0,0,0
0,1406031516,531424,2.84799,17.7635,-35.6793,39.9583,-8.73623,-0.440036,3.24347,9.32928,0.2733,5.77827,-2.39079,38.9571,7,0,0,0
0,1406031517,532427,2.75462,17.9307,-35.6259,39.9787,-8.72706,-0.497295,3.3124,9.34777,2.29,4.76272,-0.10048,39.0274,7,0,0,0
0,1406031518,533429,2.81699,17.6387,-35.4937,39.7349,-8.7114,-0.47013,3.34128,9.34204,-0.942405,4.65335,-1.6359,39.0226,8,0,0,0
0,1406031519,534433,2.63116,18.1222,-36.114,40.4914,-8.70552,-0.492746,3.31411,9.32803,2.18866,6.1806,-0.285902,38.9579,7,0,0,0
0,1406031520,535434,3.19788,17.7216,-35.8149,40.0872,-8.69891,-0.501616,3.32095,9.32477,1.4098,4.53674,-1.38911,38.9531,6,0,0,0
0,1406031521,536443,2.77743,17.8825,-35.7289,40.0507,-8.71396,-0.490097,3.31558,9.33629,0.239962,5.43526,-0.84102,38.9833,8,0,0,0
0,1406031522,537451,2.2592,18.1137,-35.2451,39.6916,-8.70276,-0.478538,3.31453,9.32486,0.665214,4.22588,-0.274265,39.0186,7,0,0,0
0,1406031523,538452,2.9158,18.2988,-35.1855,39.7664,-8.69356,-0.469124,3.29226,9.3079,0.0043167,5.23284,-1.43171,38.9888,8,0,0,0
0,1406031524,539453,2.79101,17.4811,-35.8969,40.0246,-8.69128,-0.510024,3.31946,9.31758,0.919321,5.41417,-0.512856,39.0682,7,0,0,0
0,1406031525,540460,2.82848,17.7857,-35.6784,39.966,-8.69331,-0.44912,3.29133,9.30636,-0.527675,3.96479,-2.41981,39.1262,8,0,0,0
0,1406031526,541462,2.77701,17.9819,-35.7281,40.0944,-8.69783,-0.459432,3.27917,9.30679,0.795946,4.46664,-1.11029,38.9601,8,0,0,0
0,1406031527,542473,2.90654,17.5575,-35.288,39.5216,-8.71994,-0.473609,3.30253,9.3364,0.953283,4.79062,-0.967728,39.0911,8,0,0,0
0,1406031528,543477,2.73399,17.9317,-35.5425,39.9035,-8.71374,-0.490886,3.33562,9.34326,1.57001,4.68399,-1.8453,39.0249,7,0,0,0
0,1406031529,544484,2.75072,17.7758,-35.8332,40.0944,-8.7071,-0.516159,3.33496,9.33821,1.09966,4.59372,-1.20499,39.0639,9,0,0,0
0,1406031530,545489,2.94807,17.7789,-35.5637,39.8692,-8.69805,-0.524493,3.31221,9.32212,0.55763,5.46277,-1.44126,39.0306,7,0,0,0
0,1406031531,546490,2.90173,17.7209,-35.6932,39.9557,-8.70912,-0.494546,3.29909,9.32616,0.0603945,2.77008,-2.70882,39.0266,7,0,0,0
0,1406031532,547494,2.96405,17.5192,-35.841,40.0036,-8.68579,-0.487052,3.30332,9.30549,0.290138,4.65499,-0.828183,39.1187,8,0,0,0
0,1406031533,548502,2.89515,17.7753,-35.8172,40.0901,-8.68608,-0.50721,3.30091,9.30598,1.32536,4.80588,-1.2003,39.0368,8,0,0,0
0,1406031534,549505,2.87909,17.5593,-35.5295,39.7362,-8.7044,-0.504739,3.29328,9.32025,1.2986,3.8758,-2.19133,39.179,7,0,0,0
0,1406031535,550510,2.80321,17.7073,-35.7154,39.9625,-8.72032,-0.472153,3.3149,9.34107,1.59442,4.98759,-0.0832694,39.0761,8,0,0,0
0,1406031536,551511,2.4471,17.8773,-35.8189,40.1071,-8.73354,-0.480304,3.2795,9.34133,0.549909,4.19183,-2.27732,39.042,7,0,0,0
0,1406031537,552519,2.56611,17.8243,-35.5551,39.8554,-8.70691,-0.485538,3.33161,9.33519,1.19572,4.63383,-1.42378,39.1546,8,0,0,0
0,1406031538,553521,2.81173,17.7845,-35.5322,39.8338,-8.72089,-0.50522,3.16693,9.29186,0.823527,4.53887,-1.37271,39.1218,7,0,0,0
0,1406031539,554525,2.90547,18.014,-35.5963,40.0006,-8.66535,-0.514824,3.40549,9.32474,0.736642,6.00897,-0.461856,39.0824,8,0,0,0
0,1406031540,555533,2.91793,17.5011,-35.6826,39.8504,-8.62205,-0.509649,3.45194,9.30137,0.905264,4.13094,-2.17438,39.1538,8,0,0,0
0,1406031541,556539,2.7799,17.2797,-35.7442,39.799,-8.85054,-0.480293,3.04347,9.37152,2.01105,4.49672,-0.938116,39.1157,7,0,0,0
0,1406031542,557544,2.76667,17.7027,-35.9247,40.145,-8.71903,-0.445866,3.3248,9.34208,0.707586,4.52646,0.445754,39.0875,8,0,0,0
0,1406031543,558547,3.07758,17.7686,-35.4942,39.8124,-8.70718,-0.475515,3.32319,9.33192,1.22168,5.64586,-1.15627,39.1029,7,0,0,0
0,1406031544,559561,3.11362,17.9583,-35.9364,40.2942,-8.70629,-0.465541,3.32602,9.33159,-0.0174497,5.40071,0.032262,39.103,7,0,0,0
0,1406031545,560563,3.18709,17.8562,-35.7763,40.1116,-8.75342,-0.483375,3.32125,9.37479,0.587432,4.66948,-1.8697,39.181,6,0,0,0
0,1406031546,561566,2.84045,17.7459,-35.5905,39.8707,-8.70662,-0.494739,3.33451,9.33643,-0.248761,4.90495,-1.25451,39.1446,8,0,0,0
0,1406031547,562574,2.91955,17.586,-36.0364,40.2047,-8.69945,-0.469267,3.31235,9.32053,1.54594,5.19041,-1.22787,39.1933,8,0,0,0
0,1406031548,563575,3.16826,17.6269,-35.6101,39.8601,-8.6956,-0.499931,3.31845,9.32071,-0.0244027,3.43579,-1.15033,39.2078,9,0,0,0
0,1406031549,564579,2.94867,18.0325,-35.4844,39.9125,-8.7053,-0.470364,3.30764,9.32437,1.33551,4.00906,-1.32143,39.1951,7,0,0,0
0,1406031550,565585,2.87189,17.7045,-35.4936,39.768,-8.71916,-0.515208,3.28471,9.33158,0.389201,4.2294,-0.780813,39.2233,7,0,0,0
0,1406031551,566586,2.98115,18.18,-35.6779,40.1536,-8.68547,-0.527144,3.38847,9.33794,-0.440403,4.68889,-1.35837,39.2251,8,0,0,0
0,1406031552,567591,2.8726,17.8928,-36.0086,40.3116,-8.75471,-0.411757,3.13175,9.30712,-0.164572,4.79373,-1.32308,39.3326,7,0,0,0
0,1406031553,568603,2.91604,18.4624,-35.3212,39.9619,-8.64279,-0.52493,3.40191,9.30303,1.75709,5.54885,-1.15712,39.2901,7,0,0,0
0,1406031554,569611,2.65585,18.4902,-35.9567,40.5194,-8.70763,-0.517037,3.25297,9.30978,0.753352,3.85194,-1.74036,39.3193,8,0,0,0
0,1406031555,570619,2.74018,17.8044,-36.0432,40.2941,-8.6949,-0.49687,3.33861,9.32708,0.438835,6.04935,-1.47198,39.2384,7,0,0,0
0,1406031556,571626,2.64336,18.0289,-36.5286,40.8211,-8.70678,-0.486336,3.32605,9.33312,-0.00494578,4.78231,-1.83764,39.3328,9,0,0,0
0,1406031557,572629,2.66145,17.5521,-35.9951,40.1349,-8.66403,-0.411206,3.45553,9.33676,0.0672506,4.86247,-0.98049,39.1887,7,0,0,0
0,1406031558,573630,3.02675,17.8834,-35.8112,40.1425,-8.6872,-0.510317,3.32593,9.3161,0.986332,4.15655,-1.18709,39.3119,8,0,0,0
0,1406031559,574633,2.78335,17.7715,-36.1499,40.3781,-8.69675,-0.477589,3.32287,9.32218,0.129469,5.31575,-1.35111,39.294,7,0,0,0
0,1406031560,575641,2.93182,17.8804,-35.6859,40.0224,-8.70053,-0.496592,3.32608,9.32784,0.835996,5.79112,-2.05668,39.2991,8,0,0,0
0,1406031561,576642,2.79571,17.6501,-35.7333,39.9526,-8.69031,-0.492911,3.33632,9.32177,0.164797,4.54621,-2.10923,39.3203,7,0,0,0
0,1406031562,577648,2.84489,18.0084,-36.1186,40.4592,-8.69286,-0.479274,3.29546,9.3089,0.650477,3.59686,-0.86889,39.3104,7,0,0,0
0,1406031563,578653,2.7536,17.6074,-35.8215,40.0098,-8.65049,-0.495556,3.4349,9.32068,-0.573434,3.95475,-1.40336,39.3548,6,0,0,0
0,1406031564,579661,2.72077,17.8323,-36.0093,40.2748,-8.79474,-0.483322,3.13832,9.35041,1.37471,4.40345,-1.68241,39.3577,7,0,0,0
0,1406031565,580669,2.74603,17.884,-36.017,40.3063,-8.66701,-0.489086,3.40959,9.32639,0.418943,4.9102,-1.0598,39.2515,8,0,0,0
0,1406031566,581671,2.80856,17.7412,-36.0653,40.2908,-8.77026,-0.496755,3.17499,9.34049,0.74177,5.0797,-0.932334,39.3388,8,0,0,0
0,1406031567,582678,2.54711,17.6469,-36.124,40.2845,-8.71123,-0.501209,3.26506,9.3165,-0.487675,5.14199,-0.966186,39.3585,7,0,0,0
0,1406031568,583686,2.89275,17.6769,-35.5969,39.8495,-8.75548,-0.492065,3.19601,9.33354,1.51741,5.21498,-1.70611,39.3578,9,0,0,0
0,1406031569,584692,2.739,17.9651,-35.9531,40.2849,-8.75354,-0.472852,3.2069,9.33447,-0.811224,4.39718,-1.61886,39.3872,7,0,0,0
0,1406031570,585693,2.4921,17.9773,-36.0349,40.3473,-8.63756,-0.488426,3.41887,9.3024,1.02903,4.42548,-1.11326,39.3308,8,0,0,0
0,1406031571,586701,2.49591,17.8628,-35.712,40.0082,-8.7039,-0.472479,3.30602,9.3226,0.421935,5.46616,-0.882408,39.4303,8,0,0,0
0,1406031572,587702,2.40601,18.1742,-35.8238,40.2422,-8.73583,-0.502014,3.26298,9.33883,0.16873,5.58651,-0.710603,39.386,8,0,0,0
0,1406031573,588704,2.40364,18.1488,-35.489,39.9327,-8.67288,-0.507199,3.32943,9.30383,-1.01386,5.32341,-0.555301,39.4133,7,0,0,0
0,1406031574,589709,2.36893,18.1308,-36.2265,40.5795,-8.71555,-0.502294,3.3001,9.33294,1.57213,5.50764,-1.76599,39.4286,7,0,0,0
0,1406031575,590713,2.828,17.9583,-36.2773,40.5776,-8.70928,-0.50919,3.33834,9.34105,0.240643,4.94945,-1.52886,39.3703,7,0,0,0
0,1406031576,591720,2.4612,17.9891,-35.9193,40.2475,-8.70862,-0.501469,3.30539,9.32829,0.5657,3.78692,-0.216183,39.4478,9,0,0,0
0,1406031577,592722,2.78199,18.1,-35.8717,40.2757,-8.70518,-0.505639,3.29539,9.32177,0.14665,3.90013,-1.21781,39.4422,7,0,0,0
0,1406031578,593726,2.4457,18.0036,-35.8266,40.1703,-8.70587,-0.505974,3.33798,9.33757,0.651232,4.63767,0.12813,39.5299,8,0,0,0
0,1406031579,594729,2.22304,17.6191,-35.94,40.0881,-8.65672,-0.469997,3.40821,9.31534,-0.18712,4.07329,-2.36618,39.4788,7,0,0,0
0,1406031580,595730,2.6231,18.0758,-36.26,40.6005,-8.73961,-0.524364,3.19414,9.31978,-0.446873,4.21287,-1.78881,39.4817,8,0,0,0
0,1406031581,596733,2.61859,18.0431,-36.1971,40.5295,-8.66298,-0.512774,3.37868,9.31266,0.785064,5.9888,-1.24483,39.5133,7,0,0,0
0,1406031582,597738,2.6841,17.9659,-36.0238,40.3447,-8.7042,-0.518919,3.29254,9.32057,0.0180078,5.82943,-0.544305,39.5418,9,0,0,0
0,1406031583,598746,2.71969,17.5307,-35.6953,39.8607,-8.70777,-0.513299,3.28299,9.32024,0.470776,4.70224,-1.83698,39.5123,8,0,0,0
0,1406031584,599750,2.3814,18.0581,-36.0941,40.4296,-8.71389,-0.531261,3.28591,9.32799,-0.91139,5.1236,-0.599629,39.4951,7,0,0,0
0,1406031585,600753,2.89861,17.704,-36.2312,40.4294,-8.69157,-0.511318,3.32533,9.32001,0.616187,5.04611,-0.886816,39.5226,8,0,0,0
0,1406031586,601758,2.29479,18.0418,-35.744,40.1049,-8.72006,-0.480428,3.28076,9.32918,1.20585,4.95328,-1.6229,39.502,7,0,0,0
0,1406031587,602764,2.55366,17.9909,-35.7623,40.1141,-8.70046,-0.514405,3.31145,9.32354,0.441526,6.15758,-1.10953,39.4126,7,0,0,0
0,1406031588,603768,2.49674,18.0223,-35.8765,40.2263,-8.7094,-0.501799,3.31701,9.33316,1.41834,3.97037,-1.2787,39.5192,7,0,0,0
0,1406031589,604769,2.69177,18.0329,-35.6147,40.0105,-8.66552,-0.532235,3.35457,9.3074,-0.239308,5.03926,-0.787622,39.5618,8,0,0,0
0,1406031590,605771,2.62692,18.3114,-35.3358,39.8852,-8.68836,-0.474834,3.35503,9.32573,0.301528,4.59975,-0.788531,39.4577,8,0,0,0
0,1406031591,606778,2.61126,17.4413,-35.4077,39.5566,-8.70249,-0.471167,3.30399,9.32049,1.06794,5.12424,-1.18027,39.5779,7,0,0,0
0,1406031592,607783,2.70205,18.0476,-35.638,40.0386,-8.70193,-0.503164,3.30388,9.32161,0.361828,5.18017,-0.88055,39.6359,6,0,0,0
0,1406031593,608786,2.61153,17.7913,-35.9065,40.1575,-8.68292,-0.498723,3.30159,9.30281,0.0691078,5.64538,-1.69304,39.5304,8,0,0,0
0,1406031594,609790,2.61047,17.7693,-35.9256,40.1648,-8.71754,-0.503568,3.29051,9.33148,0.70818,4.06748,-1.20919,39.5677,7,0,0,0
0,1406031595,610796,2.58011,17.998,-35.6842,40.0493,-8.70173,-0.513435,3.29664,9.31942,1.31518,5.38764,-1.74722,39.4945,8,0,0,0
0,1406031596,611799,2.69939,18.2216,-35.7021,40.174,-8.69509,-0.511902,3.28243,9.30812,0.3676,4.20407,-2.01114,39.5268,6,0,0,0
0,1406031597,612804,2.53612,18.119,-36.0337,40.4123,-8.73109,-0.52312,3.34812,9.36565,1.04276,5.65396,0.547758,39.639,8,0,0,0
0,1406031598,613811,2.7276,18.0837,-35.1197,39.5961,-8.71897,-0.503401,3.36316,9.35867,-0.248688,5.27399,-0.474966,39.6421,7,0,0,0
0,1406031599,614821,2.79795,17.8568,-35.8801,40.1755,-8.70987,-0.513472,3.29159,9.32524,-0.153924,4.79588,-0.255097,39.6678,8,0,0,0
0,1406031600,615826,2.61113,18.1395,-35.834,40.2484,-8.72221,-0.498144,3.27269,9.32929,-0.778368,6.18677,-1.12384,39.5681,8,0,0,0
0,1406031601,616834,2.908,18.1102,-36.3356,40.7028,-8.71209,-0.517463,3.26856,9.31943,1.51249,4.00012,-1.44793,39.6585,7,0,0,0
0,1406031602,617837,2.45294,18.2656,-35.8952,40.3499,-8.64855,-0.500319,3.43932,9.32076,0.256374,3.97832,-0.52668,39.6163,8,0,0,0
0,1406031603,618841,2.72809,18.3347,-35.8059,40.3196,-8.78084,-0.508925,3.21063,9.36324,0.0385125,5.54257,0.172964,39.5933,6,0,0,0
0,1406031604,619847,2.28932,18.3126,-35.6397,40.1345,-8.75912,-0.505611,3.16642,9.32759,0.800899,5.28972,-1.84426,39.7113,8,0,0,0
0,1406031605,620856,2.60617,17.7625,-35.7294,39.9861,-8.71107,-0.474391,3.28288,9.32122,0.652806,4.34783,-2.30723,39.6084,7,0,0,0
0,1406031606,621861,2.56062,18.2352,-35.8106,40.2676,-8.71158,-0.510182,3.30559,9.3316,-0.0674886,4.40689,-1.77794,39.634,8,0,0,0
0,1406031607,622864,2.46623,18.388,-35.7744,40.299,-8.71014,-0.552099,3.28688,9.32604,0.399809,5.03859,-0.16673,39.7132,7,0,0,0
0,1406031608,623870,2.54447,17.8642,-35.607,39.9182,-8.70612,-0.507711,3.28607,9.31947,0.48621,5.72679,0.0388779,39.5459,8,0,0,0
0,1406031609,624873,2.17892,18.1011,-35.6811,40.0692,-8.74744,-0.509569,3.26826,9.35194,0.0169342,5.6395,-1.48656,39.6507,7,0,0,0
0,1406031610,625880,2.48277,17.8899,-35.5304,39.8575,-8.70323,-0.53531,3.29909,9.32291,-0.873773,5.26663,-1.36614,39.7311,8,0,0,0
0,1406031611,626883,2.39654,18.2831,-35.7956,40.2659,-8.71318,-0.533337,3.28541,9.32726,-0.717094,4.72866,-1.12196,39.5728,7,0,0,0
0,1406031612,627885,2.24293,17.9679,-35.9927,40.2909,-8.74441,-0.520167,3.29535,9.3592,0.714777,5.73033,-0.79115,39.6152,8,0,0,0
0,1406031613,628904,2.32164,17.9371,-35.4575,39.8041,-8.6368,-0.513544,3.43375,9.30852,-0.49167,3.90594,-1.14705,39.7185,8,0,0,0
0,1406031614,629910,2.83804,17.9944,-35.3219,39.7428,-8.81313,-0.510109,3.10479,9.35795,1.02506,5.59677,-1.07731,39.7205,8,0,0,0
0,1406031615,630916,2.57056,17.5907,-35.262,39.4898,-8.70419,-0.506856,3.29705,9.3215,1.71442,4.62077,-2.0518,39.6779,7,0,0,0
0,1406031616,631923,2.50572,17.9683,-35.754,40.0935,-8.72251,-0.532346,3.24385,9.32139,1.02744,5.70668,-1.787,39.725,7,0,0,0
0,1406031617,632929,2.64861,17.8451,-35.8456,40.1294,-8.60349,-0.528623,3.4604,9.28837,0.186167,4.55072,-1.65175,39.6781,7,0,0,0
0,1406031618,633930,2.46349,18.0004,-35.6386,40.0024,-8.6791,-0.526806,3.34034,9.31462,0.367435,4.26644,-2.40403,39.6748,7,0,0,0
0,1406031619,634935,2.50519,17.9642,-35.1111,39.5194,-8.70587,-0.503408,3.30819,9.32682,1.73973,4.81322,-1.31883,39.7702,7,0,0,0
0,1406031620,635940,2.54931,17.8991,-35.682,40.001,-8.71942,-0.518066,3.28038,9.33046,1.80471,4.37531,-2.09584,39.7856,8,0,0,0
0,1406031621,636946,2.62643,18.1823,-35.7899,40.2295,-8.69434,-0.516163,3.2996,9.31372,0.114263,5.88435,-0.675493,39.7403,7,0,0,0
0,1406031622,637952,2.29254,17.9353,-35.7151,40.0312,-8.75545,-0.519703,3.23863,9.34969,-0.105935,5.48346,-2.56977,39.7339,7,0,0,0
0,1406031623,638957,2.33272,18.2133,-35.6528,40.1034,-8.71807,-0.490462,3.282,9.32828,0.683893,5.15118,-0.350161,39.687,8,0,0,0
0,1406031624,639960,2.49554,17.7887,-35.5523,39.8326,-8.79715,-0.532027,3.05666,9.32824,0.475337,4.99428,-0.750176,39.7701,8,0,0,0
0,1406031625,640969,2.73571,17.8559,-35.4974,39.8295,-8.75637,-0.519462,3.24188,9.35166,0.177256,4.02826,-0.866764,39.782,8,0,0,0
0,1406031626,641976,2.52849,17.9347,-35.9045,40.2142,-8.66435,-0.493859,3.39601,9.31921,1.78076,5.48488,-0.91146,39.7815,8,0,0,0
0,1406031627,642982,2.43407,17.9859,-35.6528,40.0067,-8.71616,-0.507118,3.28034,9.3268,-0.350024,4.07705,-0.601983,39.7669,7,0,0,0
0,1406031628,643989,2.37014,17.7448,-35.9205,40.1344,-8.71094,-0.472022,3.3258,9.33618,1.45463,5.97644,-0.283465,39.8435,7,0,0,0
0,1406031629,644995,2.26016,18.1591,-35.7779,40.186,-8.69415,-0.525456,3.27985,9.30708,-0.35076,5.71593,-1.38896,39.7944,8,0,0,0
0,1406031630,645999,2.43107,17.7812,-35.9216,40.1552,-8.7085,-0.514024,3.3042,9.32845,0.420266,5.19408,-0.584262,39.8239,8,0,0,0
0,1406031632,647002,2.4976,17.8922,-35.7151,40.0242,-8.70004,-0.516468,3.30659,9.32153,0.728174,4.60842,-1.60127,39.8017,8,0,0,0
0,1406031633,648009,2.43139,18.1085,-35.5962,40.0114,-8.70088,-0.509448,3.31887,9.32629,-0.0979317,5.13598,-1.52716,39.6784,7,0,0,0
0,1406031634,649016,2.46427,18.1243,-35.5638,39.9918,-8.70478,-0.51993,3.29804,9.32312,0.291134,6.14942,-1.3027,39.7768,7,0,0,0
0,1406031635,650023,2.52726,18.5113,-35.8189,40.3987,-8.70802,-0.512893,3.28571,9.32141,0.27794,4.99586,-1.2719,39.8899,6,0,0,0
0,1406031636,651029,2.58274,17.896,-35.8384,40.1414,-8.69805,-0.537653,3.34215,9.33354,0.272372,4.99992,-1.41791,39.8033,8,0,0,0
0,1406031637,652031,2.3538,18.1701,-35.874,40.2819,-8.72267,-0.523241,3.28664,9.33599,1.06776,6.01872,-1.32482,39.9091,7,0,0,0
0,1406031638,653032,2.56784,18.1228,-35.5671,40.0006,-8.71324,-0.517127,3.30498,9.33332,0.674159,5.50727,-0.543665,39.7867,8,0,0,0
0,1406031639,654034,2.37459,18.072,-35.6592,40.0476,-8.69822,-0.532331,3.30013,9.31843,0.301109,5.31027,-0.509161,39.8753,8,0,0,0
0,1406031640,655041,2.40733,18.134,-35.6654,40.0832,-8.69255,-0.510133,3.30189,9.31252,1.76503,4.9797,0.390094,39.8076,7,0,0,0
0,1406031641,656052,2.31657,18.2763,-35.8224,40.2819,-8.70708,-0.49965,3.29754,9.32398,-0.269327,5.74498,-0.958527,39.8764,8,0,0,0
0,1406031642,657053,2.54816,17.4763,-35.2719,39.4464,-8.71081,-0.515003,3.30671,9.33154,0.527935,5.06963,-1.18559,39.8372,7,0,0,0
0,1406031643,658054,2.44694,17.7111,-35.4847,39.7345,-8.72124,-0.507155,3.27258,9.32883,0.360387,5.13479,-1.68942,39.8642,9,0,0,0
0,1406031644,659055,2.64295,17.873,-35.673,39.9874,-8.69858,-0.492949,3.34214,9.33157,0.0233795,4.74225,-1.03588,39.8302,7,0,0,0
0,1406031645,660056,2.6326,17.892,-35.8652,40.1667,-8.69974,-0.505332,3.31617,9.32404,0.862192,5.5928,0.492717,39.8197,7,0,0,0
0,1406031646,661057,2.41808,18.1203,-35.7634,40.1648,-8.71858,-0.508418,3.31086,9.33991,-0.54475,4.54577,-0.899685,39.7936,7,0,0,0
0,1406031647,662063,2.51295,17.9103,-35.7747,40.0864,-8.68752,-0.517996,3.3083,9.31054,0.751765,5.12052,-1.21889,39.8642,8,0,0,0
0,1406031648,663071,2.4953,18.2477,-35.5561,40.043,-8.71611,-0.520344,3.30854,9.33744,0.680789,5.33936,-2.0642,39.863,7,0,0,0
0,1406031649,664074,2.02532,17.803,-35.6325,39.8839,-8.69095,-0.539403,3.31149,9.31609,0.89002,4.97666,-1.16311,39.9202,8,0,0,0
0,1406031650,665163,2.1159,17.8175,-35.6876,39.9443,-8.68757,-0.535285,3.30727,9.3112,1.57647,4.11243,-1.52578,39.9082,1,0,0,0
0,1406031651,666164,2.40418,18.2252,-35.5534,40.0248,-8.69112,-0.509071,3.29076,9.30719,0.39854,5.88552,-2.37148,39.8233,8,0,0,0
0,1406031652,667170,2.45593,17.9499,-35.9067,40.2185,-8.71781,-0.489061,3.3097,9.33775,1.08366,5.3407,-1.64732,39.7862,7,0,0,0
0,1406031653,668175,2.12543,18.157,-35.5177,39.9462,-8.69839,-0.51418,3.31146,9.32159,0.618858,6.32729,-1.17254,39.8979,8,0,0,0
0,1406031654,669183,2.42201,17.8922,-35.8386,40.1299,-8.72402,-0.494825,3.30763,9.34311,-0.0178171,5.48746,-2.00164,39.8426,7,0,0,0
0,1406031655,670189,2.87786,17.9375,-35.8098,40.1544,-8.71001,-0.506088,3.26581,9.31589,0.795897,5.23529,-0.934196,39.9337,6,0,0,0
0,1406031656,671194,2.4343,17.9013,-35.7929,40.0938,-8.70957,-0.512029,3.28855,9.32381,1.15249,5.1163,-1.35064,39.8757,7,0,0,0
0,1406031657,672200,2.58516,18.0071,-35.7684,40.1287,-8.71374,-0.527451,3.32299,9.34076,0.381068,4.69348,-2.33623,39.9149,7,0,0,0
0,1406031658,673203,2.52945,17.9739,-35.6966,40.0463,-8.70359,-0.50915,3.31267,9.32661,0.826415,4.81534,-1.68391,39.8487,6,0,0,0
0,1406031659,674209,2.50994,18.2347,-35.5122,39.999,-8.7036,-0.478631,3.2638,9.30774,-0.340884,4.91323,-1.80732,39.9143,7,0,0,0
0,1406031660,675213,2.37467,17.7059,-35.9607,40.1536,-8.69896,-0.488524,3.30797,9.3195,-0.382148,3.66863,-1.01414,39.9343,6,0,0,0
0,1406031661,676219,2.63708,18.2064,-35.9284,40.3643,-8.71859,-0.506696,3.28341,9.33014,0.807088,5.92464,-1.97291,39.8893,8,0,0,0
0,1406031662,677222,2.09552,18.1361,-35.4217,39.8498,-8.71745,-0.514783,3.30442,9.33693,-0.350569,4.45382,-0.968431,39.9423,6,0,0,0
0,1406031663,678228,2.6329,18.0125,-35.6551,40.0333,-8.69579,-0.48847,3.30575,9.31576,1.53453,5.38068,-0.541224,39.9452,8,0,0,0
0,1406031664,679233,2.5392,18.2142,-35.0478,39.5798,-8.72751,-0.493813,3.29854,9.34311,1.39807,4.4165,-1.30199,39.9065,7,0,0,0
0,1406031665,680254,2.64696,17.9666,-35.6432,40.003,-8.71285,-0.522603,3.29702,9.33044,0.158951,5.63453,-0.49876,39.9108,8,0,0,0
0,1406031666,681261,2.50476,18.2511,-35.2888,39.808,-8.70655,-0.499575,3.2995,9.32417,0.0110876,4.25101,-1.01134,39.9339,8,0,0,0
0,1406031667,682265,2.29802,18.0139,-35.5366,39.9078,-8.77252,-0.530844,3.24839,9.36968,0.877305,5.50401,-1.09495,39.9994,7,0,0,0
0,1406031668,683276,2.5799,17.8962,-35.8141,40.1195,-8.69941,-0.490959,3.31041,9.32092,-0.603026,5.81251,-0.241139,39.9996,8,0,0,0
0,1406031669,684280,2.66205,18.0363,-35.8556,40.2246,-8.73301,-0.521671,3.30433,9.35181,0.764098,4.96027,-1.08643,40.075,8,0,0,0
0,1406031670,685284,2.56439,17.9426,-35.7414,40.0744,-8.70596,-0.509138,3.3389,9.33816,1.28389,5.53017,-1.44883,39.9762,7,0,0,0
0,1406031671,686290,2.22263,18.0609,-35.3077,39.7211,-8.7149,-0.502307,3.31231,9.33666,0.46557,4.17383,-1.19646,40.0179,8,0,0,0
0,1406031672,687300,2.31048,18.2001,-35.7507,40.1832,-8.69854,-0.510825,3.26891,9.30652,0.232628,6.05208,-1.64422,40.0485,7,0,0,0
0,1406031673,688304,2.53085,17.9234,-35.2172,39.5968,-8.69653,-0.505685,3.28895,9.31142,0.959879,5.20606,-0.970881,39.9907,7,0,0,0
0,1406031674,689310,2.47257,17.757,-35.7803,40.0207,-8.71104,-0.528422,3.2911,9.32699,1.1149,5.9478,-1.6104,40.0169,7,0,0,0
0,1406031675,690316,2.6336,17.9564,-35.6177,39.9748,-8.72327,-0.492014,3.27473,9.33067,0.461496,4.81137,-0.991776,40.0677,8,0,0,0
0,1406031676,691323,2.46254,17.9616,-35.516,39.8757,-8.72274,-0.505808,3.29099,9.33663,0.614579,4.62771,-1.45604,40.1052,8,0,0,0
0,1406031677,692329,2.56503,17.9015,-35.6234,39.9509,-8.72334,-0.500338,3.31218,9.34439,0.956869,4.52492,-2.44489,40.0286,7,0,0,0
0,1406031678,693332,2.33574,17.9928,-35.8021,40.1371,-8.70777,-0.504162,3.32574,9.33488,0.805017,4.67793,-0.909871,40.0914,7,0,0,0
0,1406031679,694348,2.6454,17.9877,-35.5374,39.9182,-8.71145,-0.518304,3.34205,9.34491,0.277501,5.54746,-0.982612,40.0293,8,0,0,0
0,1406031680,695350,2.31949,18.0362,-35.4401,39.8332,-8.70052,-0.51689,3.29687,9.31856,0.109306,4.62857,-2.25951,40.0748,7,0,0,0
0,1406031681,696355,2.60519,18.0147,-35.5079,39.9014,-8.7171,-0.521892,3.28699,9.33083,0.676632,5.61475,-1.26119,40.0598,8,0,0,0
0,1406031682,697363,2.60758,17.7854,-35.2779,39.5936,-8.69326,-0.534404,3.30499,9.31565,1.28384,4.76519,-1.38212,40.0526,7,0,0,0
0,1406031683,698365,2.41657,18.0811,-35.32,39.7526,-8.70748,-0.513359,3.29755,9.32511,0.921205,5.13447,-0.400716,40.018,6,0,0,0
0,1406031684,699368,2.46583,18.0002,-35.6108,39.9777,-8.70274,-0.515521,3.29619,9.32031,1.55563,4.6267,-0.956613,40.1161,8,0,0,0
0,1406031685,700380,2.47959,17.7615,-35.6637,39.9189,-8.70996,-0.507658,3.28599,9.32303,0.529389,4.60554,-1.039,40.1734,8,0,0,0
0,1406031686,701383,2.39183,18.0747,-35.6489,40.0407,-8.68399,-0.513879,3.31317,9.30875,-0.893816,5.80536,-1.85563,40.0333,7,0,0,0
0,1406031687,702392,2.38982,17.9424,-35.8858,40.1924,-8.66702,-0.524099,3.33018,9.29957,1.46465,5.60159,-0.633241,40.0827,8,0,0,0
0,1406031688,703399,2.67237,17.9216,-35.5084,39.8644,-8.70421,-0.530412,3.31026,9.32751,-0.108188,4.32101,-1.29616,40.2222,7,0,0,0
0,1406031689,704401,2.52372,17.7544,-35.2444,39.5443,-8.72109,-0.502237,3.27942,9.33082,0.455383,6.14766,-1.9134,40.0074,8,0,0,0
0,1406031690,705407,2.34709,17.851,-35.6311,39.9217,-8.78447,-0.493696,3.10737,9.33093,1.16734,6.16521,-1.57031,39.9784,7,0,0,0
0,1406031691,706414,2.63568,18.0592,-35.7803,40.1661,-8.63972,-0.537475,3.36485,9.2874,1.50781,5.6699,-1.34112,40.2108,7,0,0,0
0,1406031692,707416,2.50261,18.0988,-35.3928,39.8307,-8.68098,-0.517597,3.28921,9.29765,1.17316,5.46513,-0.808906,40.1823,8,0,0,0
0,1406031693,708419,2.45614,17.9351,-35.4686,39.8212,-8.69922,-0.497822,3.31943,9.32432,1.31504,5.47619,-1.28675,40.097,7,0,0,0
0,1406031694,709426,2.11311,18.0176,-36.1144,40.4147,-8.75756,-0.468989,3.21455,9.34067,1.23918,4.08972,-1.52193,40.1234,8,0,0,0
0,1406031695,710433,2.58159,18.0711,-35.8824,40.2588,-8.69609,-0.505481,3.34998,9.33273,1.06422,3.7927,-1.12307,40.1432,7,0,0,0
0,1406031696,711437,2.55616,17.8336,-35.5586,39.8621,-8.70748,-0.522051,3.29939,9.32624,1.21869,4.27582,-1.20683,40.1495,8,0,0,0
0,1406031697,712445,2.52034,18.0269,-36.2161,40.533,-8.70293,-0.504131,3.29138,9.31817,0.378235,5.25532,-0.224415,40.1181,7,0,0,0
0,1406031698,713457,2.68044,17.9272,-35.8962,40.2132,-8.72948,-0.483726,3.29337,9.3426,0.485194,4.98901,-1.73264,40.1194,9,0,0,0
0,1406031699,714460,2.49601,18.0368,-35.8821,40.2378,-8.71202,-0.508873,3.30942,9.33331,-0.462675,4.38707,-1.61892,40.1636,8,0,0,0
0,1406031700,715464,2.548,17.9179,-36.1021,40.3845,-8.71883,-0.487888,3.33278,9.34684,-0.201853,4.09158,-2.23153,40.1261,7,0,0,0
0,1406031701,716471,2.68591,18.3275,-35.9386,40.4314,-8.70109,-0.522556,3.27155,9.31048,0.117951,5.41821,-0.656045,40.0793,7,0,0,0
0,1406031702,717478,2.47867,18.0924,-35.7536,40.1472,-8.72289,-0.498877,3.2762,9.3312,1.63973,5.41165,-0.704717,40.2515,8,0,0,0
0,1406031703,718485,2.50811,18.0615,-35.9048,40.2699,-8.713,-0.5346,3.27121,9.32217,1.32368,4.67531,-0.531545,40.2656,7,0,0,0
0,1406031704,719491,2.4339,18.3055,-35.7676,40.2534,-8.71391,-0.501959,3.29717,9.33035,0.191042,4.81141,-1.69479,40.2268,7,0,0,0
0,1406031705,720497,2.49375,17.9366,-35.7455,40.071,-8.68601,-0.518899,3.31069,9.31004,0.758983,4.62927,-1.66548,40.2412,5,0,0,0
0,1406031706,721502,2.4348,18.2292,-35.3356,39.8351,-8.69274,-0.492159,3.33424,9.32325,-0.310761,5.48249,-2.0197,40.2041,7,0,0,0
0,1406031707,722508,2.45145,18.0259,-35.8928,40.2397,-8.72428,-0.501031,3.30159,9.34155,-0.895828,3.99793,-0.739088,40.2074,7,0,0,0
0,1406031708,723514,2.3853,17.7059,-35.4985,39.7408,-8.71347,-0.493732,3.31356,9.33531,0.341455,4.29286,-0.239898,40.2219,8,0,0,0
0,1406031709,724520,2.82578,17.7745,-35.7399,40.0157,-8.70946,-0.495288,3.29417,9.32478,1.17171,4.57279,-1.59978,40.2321,8,0,0,0
0,1406031710,725523,2.58913,18.1521,-35.6561,40.0943,-8.70934,-0.504716,3.27243,9.31752,1.41763,3.84796,-1.90072,40.3179,7,0,0,0
0,1406031711,726527,2.56026,17.6615,-35.5605,39.7874,-8.69935,-0.472688,3.29377,9.31403,0.282886,5.11764,-2.64054,40.2144,8,0,0,0
0,1406031712,727529,2.54176,18.172,-35.6541,40.0986,-8.73534,-0.484054,3.29656,9.34922,0.331544,4.49015,-0.663699,40.183,7,0,0,0
0,1406031713,728530,2.4093,17.9899,-35.7894,40.1289,-8.70114,-0.501073,3.3019,9.32005,1.31496,5.04315,-0.00489489,40.3024,8,0,0,0
0,1406031714,729537,2.50762,17.8103,-35.847,40.1062,-8.69344,-0.508315,3.28002,9.30552,1.79229,4.51349,-1.58934,40.2236,7,0,0,0
0,1406031715,730538,2.42917,17.8768,-35.829,40.1148,-8.68612,-0.512582,3.27652,9.29769,0.524995,4.75593,-1.26141,40.2636,8,0,0,0
0,1406031716,731546,2.37852,17.652,-35.7211,39.9155,-8.71982,-0.519592,3.27705,9.32975,0.113055,5.91409,-1.26436,40.2855,9,0,0,0
0,1406031717,732550,2.26908,18.0304,-35.387,39.7804,-8.70294,-0.483827,3.30298,9.32121,-0.0664137,5.64544,-2.31409,40.2386,7,0,0,0
0,1406031718,733558,2.3328,17.9643,-35.7038,40.0364,-8.69641,-0.512344,3.30026,9.31567,-0.277637,3.86109,-1.3294,40.3039,8,0,0,0
0,1406031719,734562,2.54158,18.147,-35.7937,40.2114,-8.72823,-0.525268,3.312,9.35026,0.941247,4.77298,-1.5813,40.2627,7,0,0,0
0,1406031720,735567,2.57611,17.9882,-36.0125,40.3374,-8.69539,-0.553465,3.33637,9.32993,0.87026,5.51301,-0.587529,40.215,7,0,0,0
0,1406031721,736578,2.31825,18.177,-35.6512,40.0847,-8.69507,-0.478786,3.28362,9.30675,0.693703,5.74769,-1.6769,40.3398,7,0,0,0
0,1406031722,737579,2.42053,17.8425,-35.3481,39.6699,-8.70801,-0.51579,3.27175,9.31664,0.595136,6.02086,-2.23943,40.3725,8,0,0,0
0,1406031723,738583,2.66683,17.8445,-35.6058,39.9163,-8.71549,-0.519112,3.29682,9.33264,1.53525,3.85852,-1.10656,40.2281,8,0,0,0
0,1406031724,739584,2.61586,18.0523,-35.6678,40.0615,-8.70618,-0.497263,3.31657,9.32976,-0.760301,5.31088,-1.68628,40.2917,7,0,0,0
0,1406031725,740585,2.4827,18.0189,-35.7516,40.1126,-8.69828,-0.528635,3.30107,9.31861,-0.470479,5.13352,0.114538,40.4341,8,0,0,0
0,1406031726,741593,2.45414,18.0805,-35.8516,40.2277,-8.70946,-0.517243,3.28424,9.32247,1.2441,4.22728,-1.29866,40.3576,7,0,0,0
0,1406031727,742598,2.66412,17.7706,-35.7341,39.9978,-8.71353,-0.49993,3.28482,9.32553,0.63863,6.15469,-1.83601,40.3445,8,0,0,0
0,1406031728,743600,2.49125,17.938,-35.8491,40.1639,-8.70868,-0.504967,3.30763,9.32933,0.418176,5.92659,-1.39644,40.3619,6,0,0,0
0,1406031729,744602,2.4282,17.7315,-35.6553,39.8948,-8.70692,-0.497608,3.27261,9.31494,1.05497,4.28631,-0.711521,40.4239,7,0,0,0
0,1406031730,745603,2.53343,18.1911,-35.4443,39.9203,-8.72323,-0.512609,3.30573,9.34266,0.383786,4.87482,-1.67132,40.4273,7,0,0,0
0,1406031731,746605,2.46637,18.0114,-35.6902,40.0535,-8.7206,-0.549461,3.24348,9.32046,-0.38763,5.39803,-1.53519,40.4234,7,0,0,0
0,1406031732,747607,2.63687,18.1216,-35.7739,40.1885,-8.70635,-0.513312,3.30004,9.32493,0.782516,5.31152,-0.643815,40.3829,8,0,0,0
0,1406031733,748608,2.59439,17.9931,-35.7272,40.0864,-8.71988,-0.489209,3.29803,9.33556,1.72502,5.42877,-0.927168,40.3896,7,0,0,0
0,1406031734,749613,2.648,18.0343,-35.8443,40.2127,-8.6947,-0.528989,3.31264,9.3194,1.3179,4.80446,-0.998987,40.3346,8,0,0,0
0,1406031735,750617,2.53779,17.8907,-35.8838,40.1766,-8.71559,-0.488139,3.31567,9.33774,1.4593,5.76287,-1.65586,40.5288,7,0,0,0
0,1406031736,751623,2.4604,17.8757,-35.5529,39.8698,-8.7075,-0.522752,3.29919,9.32623,2.17125,5.70681,-2.10513,40.3854,7,0,0,0
0,1406031737,752629,2.57389,18.1111,-35.2111,39.6794,-8.71299,-0.541061,3.28524,9.32747,1.79271,5.33353,-0.449682,40.3828,8,0,0,0
0,1406031738,753635,2.51618,17.9053,-35.5403,39.8754,-8.71974,-0.518567,3.32979,9.34828,0.394623,5.07767,-0.403696,40.3235,7,0,0,0
0,1406031739,754643,2.60181,17.9185,-35.4699,39.824,-8.69983,-0.517264,3.29615,9.31768,-0.398352,5.60614,-1.26802,40.3468,8,0,0,0
0,1406031740,755649,2.38368,18.1502,-35.815,40.2222,-8.70326,-0.540165,3.30479,9.32524,0.0506901,6.00057,-0.433541,40.4266,8,0,0,0
0,1406031741,756653,2.68841,17.917,-35.5846,39.9313,-8.71352,-0.523259,3.32046,9.33941,-0.102757,4.33997,-1.25796,40.4276,7,0,0,0
0,1406031742,757658,2.537,18.0753,-35.7909,40.1764,-8.71479,-0.512438,3.29312,9.33032,0.361119,5.96524,-0.781859,40.416,7,0,0,0
0,1406031743,758668,2.53349,18.3413,-35.6752,40.1938,-8.69833,-0.529973,3.3058,9.32041,0.897656,5.77647,-1.49411,40.5246,7,0,0,0
0,1406031744,759671,2.62297,18.038,-35.6682,40.0558,-8.70911,-0.510383,3.2908,9.32408,0.0801524,4.40653,-1.09472,40.5664,7,0,0,0
0,1406031745,760682,2.7045,17.9576,-35.8352,40.174,-8.70656,-0.525118,3.32683,9.3353,1.52288,5.10152,-0.183865,40.4703,7,0,0,0
0,1406031746,761688,2.75412,17.9379,-35.4322,39.8095,-8.7031,-0.496923,3.27895,9.31356,0.561604,5.6339,-0.358627,40.5092,7,0,0,0
0,1406031747,762689,2.54035,17.957,-35.4603,39.8288,-8.69224,-0.508806,3.31198,9.31575,0.0144629,5.86096,-0.24723,40.624,7,0,0,0
0,1406031748,763691,2.56362,17.8991,-35.6301,39.9557,-8.70134,-0.515504,3.30241,9.32121,0.261437,5.18075,-1.32423,40.6001,7,0,0,0
0,1406031749,764699,2.41852,17.9613,-35.5279,39.8835,-8.70202,-0.521712,3.35623,9.3414,2.22104,5.49721,-2.32335,40.6102,7,0,0,0
0,1406031750,765710,2.69477,18.0727,-35.3512,39.7944,-8.72574,-0.508631,3.30299,9.34382,-0.308538,6.18944,-2.21826,40.5864,7,0,0,0
0,1406031751,766712,2.4995,17.8957,-35.9686,40.2523,-8.67806,-0.520525,3.32242,9.30689,1.17551,4.65271,-1.47585,40.4655,7,0,0,0
0,1406031752,767714,2.40633,17.8726,-35.006,39.3782,-8.71236,-0.527404,3.30011,9.33135,1.24973,5.61465,-0.927605,40.4509,6,0,0,0
0,1406031753,768722,2.66941,17.9301,-35.5514,39.9064,-8.69098,-0.513929,3.3173,9.31674,0.403713,6.08054,-0.965451,40.5353,8,0,0,0
0,1406031754,769728,2.66985,17.7874,-35.1628,39.4961,-8.72291,-0.519787,3.21725,9.31183,-0.37562,4.75606,-1.19226,40.5653,6,0,0,0
0,1406031755,770735,2.62919,17.779,-35.7151,39.9821,-8.69908,-0.472499,3.29165,9.31301,1.51572,7.03982,0.247972,40.6093,8,0,0,0
0,1406031756,771743,2.61206,18.029,-35.8248,40.1906,-8.73644,-0.48697,3.29732,9.35066,-0.645979,4.63944,-0.715978,40.4932,8,0,0,0
0,1406031757,772745,2.54103,17.8037,-35.8631,40.1198,-8.69848,-0.498832,3.31471,9.322,1.73805,5.15817,-1.60198,40.5972,7,0,0,0
0,1406031758,773751,2.55766,17.7934,-35.7007,39.9711,-8.69258,-0.502744,3.29548,9.30988,0.799816,4.9853,-1.93754,40.6275,8,0,0,0
0,1406031759,774759,2.795,17.8872,-35.6981,40.0265,-8.71261,-0.498663,3.29414,9.3279,0.089504,4.74891,-1.79722,40.5193,7,0,0,0
0,1406031760,775766,2.46613,17.9602,-35.1354,39.5366,-8.71929,-0.5145,3.32296,9.3452,1.07588,5.59207,-0.0842979,40.5526,7,0,0,0
0,1406031761,776773,2.83867,17.6613,-35.8186,40.0368,-8.70524,-0.515904,3.29931,9.32377,0.954771,5.13808,-1.72205,40.5455,8,0,0,0
0,1406031762,777775,2.79002,17.8782,-36.2118,40.481,-8.70128,-0.525473,3.31856,9.32744,0.380419,6.0898,-1.52876,40.5486,8,0,0,0
0,1406031763,778783,2.31308,17.7641,-35.8118,40.0425,-8.70866,-0.512556,3.30475,9.32871,2.33611,4.86505,-0.40238,40.584,8,0,0,0
0,1406031764,779789,2.54854,17.7819,-35.5437,39.8252,-8.69381,-0.500227,3.26571,9.3004,0.0936695,4.67466,-1.39993,40.6001,7,0,0,0
0,1406031765,780791,2.59623,17.6908,-35.5045,39.7526,-8.71476,-0.484462,3.32636,9.34058,1.18716,5.4095,-0.944607,40.6939,8,0,0,0
0,1406031766,781794,2.63329,18.0104,-35.3785,39.7863,-8.69982,-0.511576,3.30781,9.32149,0.402085,4.56271,-1.51072,40.6054,7,0,0,0
0,1406031767,782799,2.19968,18.1372,-35.7913,40.1847,-8.69328,-0.505603,3.28763,9.30792,0.810736,4.58569,-0.529556,40.6329,8,0,0,0
0,1406031768,783805,2.54935,17.9585,-35.5471,39.9075,-8.73135,-0.497,3.35407,9.3666,1.95122,5.6012,-1.24751,40.5366,6,0,0,0
0,1406031769,784808,2.66778,17.8586,-35.7557,40.0565,-8.69572,-0.491676,3.30102,9.31418,2.97493,4.96407,-1.61545,40.6808,8,0,0,0
0,1406031770,785810,2.53826,18.0579,-35.6779,40.068,-8.69262,-0.516736,3.30258,9.3132,-0.0799401,4.49861,-1.12461,40.7066,9,0,0,0
0,1406031771,786817,2.60468,17.8909,-35.598,39.926,-8.71242,-0.508206,3.29748,9.32941,0.808221,4.26993,-2.50067,40.6292,7,0,0,0
0,1406031772,787821,2.70658,17.9553,-35.5449,39.9144,-8.70441,-0.498486,3.29966,9.32217,0.739001,4.94668,-3.07553,40.6446,7,0,0,0
0,1406031773,788822,2.69992,18.0639,-35.7067,40.1069,-8.68648,-0.505855,3.31308,9.3106,0.699247,6.41615,-1.17057,40.7211,7,0,0,0
0,1406031774,789823,2.8703,18.0196,-35.1566,39.6098,-8.73343,-0.505147,3.28574,9.34473,1.65748,4.53727,-1.40348,40.6735,7,0,0,0
0,1406031775,790829,2.61584,18.1573,-35.6936,40.1318,-8.7076,-0.528521,3.31394,9.33187,1.02789,5.53826,-1.14945,40.7542,7,0,0,0
0,1406031776,791842,2.36577,17.9174,-35.817,40.1185,-8.71764,-0.514589,3.31444,9.34064,0.776585,5.34299,-0.679775,40.776,7,0,0,0
0,1406031777,792847,2.52124,18.0488,-35.459,39.868,-8.7053,-0.508164,3.35398,9.34289,1.2342,5.43877,-2.09881,40.7303,8,0,0,0
0,1406031778,793849,2.6512,17.6599,-35.4139,39.6617,-8.71569,-0.525039,3.29902,9.33394,0.778976,4.61432,-1.0979,40.7974,8,0,0,0
0,1406031779,794857,2.46769,18.1274,-35.8785,40.2736,-8.69125,-0.509992,3.2701,9.30008,0.905443,4.8723,-1.07406,40.7811,7,0,0,0
0,1406031780,795859,2.64887,18.0196,-35.6333,40.0182,-8.71516,-0.516419,3.30636,9.33556,1.51053,5.20668,-0.971129,40.7826,7,0,0,0
0,1406031781,796866,2.3735,17.8192,-35.5301,39.819,-8.71813,-0.514941,3.26917,9.32515,-0.982798,4.64288,-1.48708,40.7133,8,0,0,0
0,1406031782,797871,2.6674,18.0875,-35.6967,40.1064,-8.72709,-0.500403,3.28395,9.33792,-0.127301,4.67916,-0.430103,40.7326,7,0,0,0
0,1406031783,798875,2.67024,17.9213,-35.6273,39.9701,-8.72924,-0.508566,3.30374,9.34735,0.963917,5.3538,-0.620399,40.7746,8,0,0,0
0,1406031784,799876,2.5768,18.0656,-36.0173,40.3763,-8.70693,-0.50275,3.29831,9.32428,1.51588,5.2953,-0.996295,40.7392,7,0,0,0
0,1406031785,800891,2.55767,18.0536,-35.9475,40.3075,-8.71925,-0.461023,3.29103,9.33106,1.35173,5.17398,-0.659853,40.6967,7,0,0,0
0,1406031786,801899,2.68386,17.8711,-35.4553,39.7952,-8.71398,-0.499238,3.28546,9.32614,0.875262,4.43404,-0.229698,40.7783,7,0,0,0
0,1406031787,802902,2.73106,17.7418,-35.4588,39.7437,-8.69261,-0.498049,3.29205,9.30844,1.24192,5.34396,-1.42128,40.7424,7,0,0,0
0,1406031788,803904,2.49899,17.7567,-35.423,39.7031,-8.71764,-0.491959,3.30467,9.33595,0.385294,5.51079,-1.30787,40.7525,7,0,0,0
0,1406031789,804910,2.27524,18.182,-35.9051,40.3105,-8.69243,-0.520203,3.31625,9.31807,1.24815,5.80194,-1.20462,40.8247,7,0,0,0
0,1406031790,805914,2.51621,17.8013,-35.5292,39.8189,-8.70509,-0.523475,3.30801,9.32714,0.257276,4.79022,0.0396661,40.7197,7,0,0,0
0,1406031791,806919,2.51528,18.0136,-35.3934,39.7933,-8.71929,-0.519221,3.27583,9.32881,0.970034,4.71528,-1.50003,40.8043,8,0,0,0
0,1406031792,807920,2.40081,17.8012,-35.1881,39.5076,-8.71283,-0.514847,3.31045,9.33475,0.68199,4.97824,-0.294177,40.8698,8,0,0,0
0,1406031793,808923,2.59445,18.006,-35.7237,40.089,-8.71176,-0.502061,3.27886,9.32189,1.22346,4.61601,-0.681075,40.8737,8,0,0,0
0,1406031794,809927,2.36711,17.9956,-35.7508,40.0944,-8.72655,-0.506195,3.33485,9.35575,-0.0668989,5.10623,-1.46218,40.8365,7,0,0,0
0,1406031795,810931,2.48973,17.8699,-35.4791,39.8033,-8.7105,-0.524167,3.28892,9.32547,0.402451,5.82994,-0.0167762,40.9206,6,0,0,0
0,1406031796,811935,2.45689,17.8759,-35.5521,39.8689,-8.7019,-0.530267,3.30352,9.32295,-0.136019,4.80354,-2.28478,40.9102,7,0,0,0
0,1406031797,812940,2.4121,17.9,-35.5469,39.8724,-8.70991,-0.505544,3.31924,9.33464,-0.686123,5.06564,-1.22027,40.8401,6,0,0,0
0,1406031798,813946,2.64193,17.9911,-35.6141,39.9878,-8.67839,-0.526392,3.28397,9.29387,0.966731,4.93147,-1.50746,40.9637,6,0,0,0
0,1406031799,814947,2.51,17.8046,-35.2169,39.5416,-8.71392,-0.524427,3.28238,9.32638,0.254275,5.01437,-0.526844,40.866,7,0,0,0
0,1406031800,815950,2.42089,18.1123,-35.5386,39.9613,-8.73134,-0.51983,3.3067,9.35098,2.49263,4.70164,-1.77459,40.9117,8,0,0,0
0,1406031801,816951,2.39147,17.8491,-35.34,39.6639,-8.719,-0.497199,3.28742,9.33142,-0.53891,5.76581,-0.94008,40.912,7,0,0,0
0,1406031802,817954,2.63394,18.0107,-35.9866,40.3281,-8.69928,-0.524804,3.29257,9.31633,-0.6416,6.12071,-1.26668,40.9407,8,0,0,0
0,1406031803,818964,2.46984,17.8123,-35.2826,39.601,-8.70106,-0.496295,3.28624,9.31419,1.3094,5.75818,-1.07615,40.9546,6,0,0,0
0,1406031804,819969,2.68768,18.108,-35.946,40.3391,-8.69523,-0.518068,3.33107,9.32585,0.425269,4.96944,-0.640458,40.861,8,0,0,0
0,1406031805,820971,2.78506,17.9286,-35.5006,39.8683,-8.70655,-0.506194,3.2887,9.32072,2.45734,4.67496,-0.462089,40.8381,7,0,0,0
0,1406031806,821973,2.69451,17.8361,-35.8643,40.1452,-8.70499,-0.523185,3.32237,9.33213,-0.335343,5.09771,-1.70454,40.8997,8,0,0,0
0,1406031807,822974,2.46652,18.0269,-35.2502,39.669,-8.71358,-0.50409,3.31696,9.33718,0.889245,4.59995,-1.83832,40.9781,6,0,0,0
0,1406031808,823978,2.55045,17.9022,-35.9461,40.2382,-8.71004,-0.513044,3.29775,9.32754,-0.542641,5.02074,-2.30196,40.9094,8,0,0,0
0,1406031809,824979,3.03906,18.3071,-35.7402,40.2709,-8.71665,-0.527238,3.27053,9.32493,1.0998,5.21578,-0.989732,40.9401,7,0,0,0
0,1406031810,825984,2.45554,18.3884,-35.9838,40.4845,-8.71908,-0.505619,3.29424,9.33435,-0.263919,5.37627,-0.88871,40.9837,7,0,0,0
0,1406031811,826991,2.60182,18.4385,-35.7021,40.2664,-8.71442,-0.516812,3.30672,9.33502,1.9374,4.36026,-0.587745,41.0216,7,0,0,0
0,1406031812,827992,2.58427,17.8656,-35.5078,39.8329,-8.69041,-0.520191,3.28923,9.3066,1.07988,5.30232,-1.76656,40.9565,6,0,0,0
0,1406031814,829000,2.30641,17.9221,-35.5521,39.8807,-8.71801,-0.511591,3.29226,9.33297,1.659,4.82977,-1.64536,41.1015,7,0,0,0
0,1406031815,830007,1.98495,18.1312,-35.5124,39.9226,-8.70469,-0.517811,3.29447,9.32166,1.14713,5.39286,-0.386729,40.9329,6,0,0,0
0,1406031816,831016,2.74721,17.7709,-35.5053,39.7992,-8.71208,-0.509527,3.2778,9.32223,0.721356,3.91473,-1.05866,40.9715,7,0,0,0
0,1406031817,832022,2.51925,17.7966,-35.5733,39.8563,-8.69317,-0.499689,3.26957,9.30113,0.490862,4.76011,-2.18864,41.0209,8,0,0,0
0,1406031818,833023,2.64178,18.184,-35.5851,40.0491,-8.685,-0.521061,3.29349,9.30311,0.810416,6.34465,-0.133747,40.9515,7,0,0,0
0,1406031819,834029,2.57567,17.6714,-35.1883,39.4605,-8.70328,-0.504773,3.31483,9.32684,0.613621,5.6706,-1.14037,40.956,8,0,0,0
0,1406031820,835033,2.27908,18.1813,-35.525,39.9723,-8.7134,-0.512031,3.31954,9.33835,1.9036,6.1802,-0.900806,41.0486,7,0,0,0
0,1406031821,836034,2.38825,17.6655,-35.6633,39.8703,-8.68729,-0.530207,3.31993,9.31515,0.143598,5.3136,-1.80321,40.9785,8,0,0,0
0,1406031822,837038,2.31101,18.0452,-35.483,39.875,-8.71053,-0.507736,3.26793,9.31722,0.756019,6.10744,0.0403829,41.0378,7,0,0,0
0,1406031823,838040,2.26143,18.0128,-35.6078,39.9686,-8.71523,-0.546405,3.28918,9.33126,2.44534,5.17886,-2.24584,41.1129,8,0,0,0
0,1406031824,839044,2.19555,17.8003,-35.7548,40.0009,-8.72481,-0.512982,3.29814,9.34148,0.771265,6.07994,-2.52203,41.122,7,0,0,0
0,1406031825,840050,2.27992,17.8755,-35.7519,40.0367,-8.69557,-0.511976,3.31743,9.32096,-0.111784,5.02031,-1.16973,41.0734,7,0,0,0
0,1406031826,841053,2.20899,18.1422,-35.7023,40.1083,-8.68931,-0.494239,3.31141,9.31203,1.08327,5.2595,-1.41373,41.0484,7,0,0,0
0,1406031827,842057,2.59894,17.9548,-35.7916,40.1269,-8.70556,-0.515376,3.29378,9.3221,0.996325,5.06144,-0.300404,41.0695,7,0,0,0
0,1406031828,843060,2.44114,18.0234,-35.6079,39.9841,-8.69848,-0.522972,3.29491,9.31631,0.163616,5.26012,-1.17999,41.078,8,0,0,0
0,1406031829,844070,2.37214,18.0041,-35.9727,40.2965,-8.72024,-0.488277,3.28326,9.33064,-1.24574,6.11656,-1.14493,41.0263,8,0,0,0
0,1406031830,845079,2.71664,17.8019,-35.6621,39.9509,-8.67867,-0.519365,3.28465,9.29397,1.40688,5.06657,-1.06536,41.0406,7,0,0,0
0,1406031831,846086,2.43877,18.2336,-35.9185,40.3553,-8.7372,-0.511951,3.28405,9.34804,0.805964,5.05767,-0.312059,41.0357,8,0,0,0
0,1406031832,847093,2.58374,18.1024,-35.7461,40.1517,-8.69828,-0.53002,3.31238,9.32271,-0.22696,5.97948,-1.35417,41.1163,8,0,0,0
0,1406031833,848101,2.13555,18.0075,-35.5841,39.9382,-8.70654,-0.519321,3.27336,9.31603,0.372992,5.83051,-1.04353,41.0389,8,0,0,0
0,1406031834,849108,2.53528,18.0486,-35.3966,39.8133,-8.7044,-0.521974,3.29573,9.32207,0.750512,4.6093,-1.60426,41.0515,7,0,0,0
0,1406031835,850118,2.60295,17.6729,-35.7247,39.942,-8.714,-0.490517,3.28632,9.326,-0.60951,5.50029,-1.7746,41.0825,7,0,0,0
0,1406031836,851119,2.59798,17.6122,-35.4623,39.6801,-8.70966,-0.504145,3.30432,9.32903,-0.579602,4.67613,-1.05053,41.1465,8,0,0,0
0,1406031837,852123,2.45373,18.1471,-35.7476,40.1651,-8.71337,-0.515648,3.31083,9.33543,1.2549,5.46685,-0.642161,41.0708,7,0,0,0
0,1406031838,853128,2.36773,17.7251,-35.4752,39.7275,-8.70744,-0.509655,3.28815,9.32154,1.27939,4.57705,-1.64622,41.1236,8,0,0,0
0,1406031839,854134,2.59235,17.9525,-35.8681,40.1937,-8.71101,-0.496474,3.31801,9.33474,0.11756,5.15063,-0.35494,41.1654,7,0,0,0
0,1406031840,855140,2.61033,18.2397,-35.5483,40.0398,-8.69414,-0.516367,3.30107,9.31406,0.197323,4.92054,-1.35091,41.1506,8,0,0,0
0,1406031841,856146,2.40922,17.9972,-35.7223,40.0722,-8.74072,-0.504727,3.3116,9.36064,0.327005,5.24411,-1.12442,41.1476,8,0,0,0
0,1406031842,857157,2.47596,17.9709,-35.129,39.5364,-8.71385,-0.506575,3.29975,9.33146,-0.49347,4.27142,-2.17238,41.1322,6,0,0,0
0,1406031843,858160,2.26845,17.8192,-35.7039,39.968,-8.70552,-0.525842,3.30492,9.32658,1.00561,6.01295,-0.304978,41.072,6,0,0,0
0,1406031844,859166,2.15251,17.8567,-35.7102,39.9839,-8.72618,-0.516431,3.28146,9.33707,0.510677,5.85526,-1.78334,41.0443,7,0,0,0
0,1406031845,860173,2.34783,18.0679,-35.6693,40.0532,-8.72048,-0.507914,3.29928,9.33756,-0.114862,5.69605,-1.50133,41.2119,7,0,0,0
0,1406031846,861178,2.49246,18.1807,-35.5247,39.9844,-8.71411,-0.515206,3.29654,9.33105,1.32497,4.96766,-1.78407,41.1967,7,0,0,0
0,1406031847,862179,2.1452,17.9729,-35.4933,39.8421,-8.71103,-0.5181,3.28577,9.32452,0.0481169,5.85045,-1.43829,41.154,7,0,0,0
0,1406031848,863180,2.08191,17.6746,-35.1841,39.429,-8.69178,-0.522899,3.31796,9.31822,0.904001,5.33798,-0.660535,41.2151,8,0,0,0
0,1406031849,864181,2.46027,17.958,-35.5276,39.8843,-8.69578,-0.508721,3.34889,9.33223,1.39469,5.46779,-1.40431,41.1647,7,0,0,0
0,1406031850,865187,2.53981,17.5906,-35.391,39.6031,-8.68678,-0.512996,3.29354,9.30434,1.28665,5.90939,0.269617,41.1068,8,0,0,0
0,1406031851,866196,2.29903,17.8186,-35.4396,39.7335,-8.70825,-0.509964,3.30322,9.32765,-1.23383,7.09577,-0.914277,41.2423,6,0,0,0
0,1406031852,867199,2.29072,18.1859,-35.6718,40.1055,-8.70913,-0.523867,3.30445,9.32967,1.53015,6.02395,-2.02785,41.1809,8,0,0,0
0,1406031853,868204,2.26551,17.6088,-35.6151,39.7949,-8.69055,-0.518897,3.31414,9.31549,-0.41658,6.01926,0.401063,41.1435,6,0,0,0
0,1406031854,869211,2.13133,18.1531,-35.3143,39.7641,-8.72691,-0.491091,3.28012,9.33592,-0.0108486,6.12441,-0.371864,41.1857,8,0,0,0
0,1406031855,870218,2.17879,17.9767,-35.7334,40.0598,-8.68715,-0.511555,3.307,9.30938,0.634162,5.68613,-2.04526,41.1678,7,0,0,0
0,1406031856,871222,2.73387,18.0969,-35.4607,39.9053,-8.70966,-0.5096,3.29874,9.32736,0.0206486,5.81716,-0.840712,41.2374,7,0,0,0
0,1406031857,872227,2.16521,17.9343,-35.6054,39.9258,-8.71402,-0.501039,3.29408,9.32931,1.1928,5.46515,-1.57147,41.142,8,0,0,0
0,1406031858,873233,2.32816,17.9356,-35.2725,39.639,-8.68605,-0.528237,3.30589,9.30889,-0.135454,5.45999,-1.498,41.1879,7,0,0,0
0,1406031859,874240,2.25648,18.3888,-35.4187,39.9716,-8.70858,-0.49456,3.29943,9.32579,-0.0626392,6.55898,-1.26318,41.2448,7,0,0,0
0,1406031860,875246,2.57413,18.0551,-35.2518,39.69,-8.71534,-0.538567,3.2958,9.33325,-1.41198,5.79048,-0.416133,41.1747,7,0,0,0
0,1406031861,876252,2.61411,17.8714,-35.3569,39.703,-8.7026,-0.495154,3.30979,9.3239,0.0478556,5.12543,-0.023461,41.2822,7,0,0,0
0,1406031862,877256,2.47259,17.6813,-35.3614,39.6127,-8.69946,-0.528879,3.33516,9.33186,0.545202,5.80436,-1.17807,41.2372,7,0,0,0
0,1406031863,878264,2.44416,17.882,-35.9741,40.2477,-8.71733,-0.531972,3.29365,9.33397,0.676745,4.85855,-1.26035,41.1477,7,0,0,0
0,1406031864,879270,2.11324,17.8583,-35.5647,39.8526,-8.70772,-0.510929,3.30621,9.32826,1.37699,5.06423,-1.12129,41.2898,8,0,0,0
0,1406031865,880273,2.45231,18.1267,-35.4712,39.9099,-8.71673,-0.518076,3.3268,9.34438,2.26617,5.72308,-1.02153,41.2962,6,0,0,0
0,1406031866,881278,2.54017,17.7666,-35.8056,40.0518,-8.69999,-0.51248,3.31029,9.32258,1.79668,4.93124,-2.13662,41.1988,8,0,0,0
0,1406031867,882281,2.66837,18.1384,-35.251,39.7336,-8.70292,-0.502101,3.3027,9.32206,1.49873,6.45837,-1.86655,41.2457,6,0,0,0
0,1406031868,883284,2.49761,17.8834,-35.5681,39.8891,-8.71285,-0.526858,3.311,9.33563,0.209772,5.21664,-1.56573,41.2209,8,0,0,0
0,1406031869,884289,2.22917,18.0425,-35.6493,40.0172,-8.71142,-0.516144,3.28552,9.32469,-0.474491,5.56028,-1.53922,41.2139,7,0,0,0
0,1406031870,885292,2.4323,17.984,-35.7654,40.1061,-8.72594,-0.527179,3.29272,9.34141,0.10153,4.57638,-1.7115,41.2891,8,0,0,0
0,1406031871,886295,2.67238,18.0361,-35.2202,39.6599,-8.69971,-0.516562,3.28536,9.31372,0.638389,6.68579,-0.561839,41.2522,7,0,0,0
0,1406031872,887302,2.52111,17.8244,-35.7164,39.9966,-8.7152,-0.50592,3.30225,9.33357,-0.311132,5.49846,-1.73143,41.2205,8,0,0,0
0,1406031873,888303,2.32144,18.5853,-34.6367,39.3764,-8.70988,-0.494997,3.30445,9.3288,0.611237,4.61016,-0.25801,41.281,8,0,0,0
0,1406031874,889310,2.73848,18.0754,-36.0047,40.3801,-8.71427,-0.505618,3.29955,9.33172,0.114518,4.81837,-0.826492,41.2755,7,0,0,0
0,1406031875,890316,2.07188,18.1421,-35.724,40.1202,-8.70422,-0.507863,3.26309,9.30962,-0.597263,7.02757,-0.716693,41.3182,8,0,0,0
0,1406031876,891324,2.38576,17.7439,-35.3886,39.6597,-8.71114,-0.531679,3.32084,9.33781,0.911889,5.13699,-1.40437,41.3382,7,0,0,0
0,1406031877,892328,2.46704,18.0881,-36.0253,40.3868,-8.73081,-0.522059,3.30064,9.34847,0.836403,5.44872,-2.33767,41.2707,7,0,0,0
0,1406031878,893332,2.73277,18.2595,-35.3592,39.8892,-8.70273,-0.524095,3.31152,9.32622,1.84046,6.80024,-1.26597,41.3568,8,0,0,0
0,1406031879,894339,2.74431,17.9169,-35.2133,39.6046,-8.6736,-0.494777,3.34501,9.30941,0.28942,4.83907,-1.59312,41.3494,7,0,0,0
0,1406031880,895342,2.52846,18.0678,-35.5549,39.9623,-8.70546,-0.440335,3.29867,9.31988,0.414684,5.74551,-1.72871,41.3409,8,0,0,0
0,1406031881,896350,2.89048,17.6415,-35.7422,39.9635,-8.68699,-0.543182,3.29732,9.30759,-0.0883654,6.06984,-0.628547,41.3449,7,0,0,0
0,1406031882,897361,2.341,18.1925,-35.6912,40.1286,-8.70326,-0.552066,3.30315,9.32536,1.05823,6.06246,-1.44777,41.3579,8,0,0,0
0,1406031883,898369,2.505,17.7383,-35.3599,39.6389,-8.70407,-0.478545,3.31096,9.32482,1.1258,4.66627,-0.401294,41.3019,7,0,0,0
0,1406031884,899375,2.98238,18.0331,-35.7649,40.1648,-8.72606,-0.532024,3.28158,9.33788,1.04476,6.49725,-1.68791,41.309,7,0,0,0
0,1406031885,900382,2.55726,17.9565,-35.6821,40.0273,-8.72124,-0.507081,3.30804,9.34132,0.397199,5.52259,-1.79311,41.3316,7,0,0,0
0,1406031886,901387,2.648,17.8544,-35.7961,40.0894,-8.70374,-0.371352,3.33106,9.32679,1.3794,6.25335,-1.60438,41.2722,7,0,0,0
0,1406031887,902391,2.6153,17.8973,-35.7678,40.081,-8.7068,-0.525964,3.305,9.3278,2.18464,5.08078,-1.32416,41.3586,6,0,0,0
0,1406031888,903398,2.54977,17.6112,-35.6501,39.8445,-8.70566,-0.540062,3.31672,9.33171,0.748626,5.09907,0.0710547,41.3667,6,0,0,0
0,1406031889,904404,2.47186,17.8591,-35.5509,39.8613,-8.71226,-0.512838,3.28044,9.32351,-1.18317,6.57577,-1.13601,41.3225,7,0,0,0
0,1406031890,905414,2.38563,17.8957,-35.5907,39.9079,-8.72137,-0.498912,3.29973,9.33806,1.91036,5.85058,-0.900368,41.3126,7,0,0,0
0,1406031891,906421,2.44258,17.5954,-35.837,39.9982,-8.69812,-0.517946,3.30406,9.31892,0.336185,5.47929,-1.83342,41.3768,8,0,0,0
0,1406031892,907424,2.30405,17.8739,-35.884,40.1553,-8.71124,-0.485427,3.2941,9.32591,2.04511,5.24373,-1.11279,41.3918,8,0,0,0
0,1406031893,908432,2.56744,17.974,-35.5007,39.8742,-8.70577,-0.520901,3.28815,9.3206,-0.0687706,5.15303,-0.868833,41.4056,7,0,0,0
0,1406031894,909445,2.44937,17.9826,-35.5433,39.9086,-8.72747,-0.538126,3.30744,9.34866,-0.170128,5.65183,-1.71303,41.3922,7,0,0,0
0,1406031895,910453,2.69493,17.8717,-35.6459,39.9661,-8.71002,-0.519061,3.30219,9.32943,0.256348,6.1961,-0.828056,41.3782,7,0,0,0
0,1406031896,911462,2.18068,17.937,-36.0756,40.3478,-8.72134,-0.534697,3.29988,9.34007,0.87215,5.1096,-1.73186,41.4962,7,0,0,0
0,1406031897,912466,2.58126,18.2242,-35.5732,40.053,-8.72077,-0.531901,3.32197,9.3472,1.76853,4.96304,-3.00514,41.3557,8,0,0,0
0,1406031898,913468,2.20821,18.0561,-35.9209,40.2642,-8.69533,-0.517745,3.29198,9.31203,-0.0555873,5.29913,-1.0345,41.3838,8,0,0,0
0,1406031899,914470,2.16625,17.6146,-35.6157,39.7925,-8.70421,-0.519428,3.3077,9.32599,0.442319,6.09918,-1.63456,41.3712,8,0,0,0
0,1406031900,915471,2.54388,18.0704,-35.4871,39.9042,-8.71002,-0.493144,3.31213,9.33155,0.165206,6.83425,-0.911441,41.4521,7,0,0,0
0,1406031901,916472,2.42123,18.0819,-35.7301,40.1181,-8.6946,-0.531087,3.29773,9.31414,1.22888,5.00444,-1.67652,41.4594,7,0,0,0
0,1406031902,917478,2.5314,17.8758,-35.4099,39.7469,-8.70434,-0.511556,3.30579,9.325,-0.0467909,6.10731,-1.71497,41.3006,7,0,0,0
0,1406031903,918490,2.33281,17.9951,-35.6815,40.0304,-8.7018,-0.512601,3.32041,9.32788,0.932671,5.01625,-1.98697,41.438,8,0,0,0
0,1406031904,919491,2.86914,17.8251,-35.4245,39.7601,-8.7108,-0.494654,3.2901,9.32456,0.278131,5.23058,-1.65414,41.4018,8,0,0,0
0,1406031905,920495,2.50822,17.9043,-35.727,40.0409,-8.69422,-0.507486,3.29455,9.31134,-0.713975,4.69156,-1.42643,41.4707,8,0,0,0
0,1406031906,921501,2.46316,17.8429,-35.5328,39.8374,-8.70657,-0.501366,3.30277,9.32545,0.567776,4.6686,-1.36665,41.4388,8,0,0,0
0,1406031907,922503,2.34136,18.1261,-35.7907,40.1872,-8.73276,-0.498751,3.28935,9.34504,0.393197,4.76249,-1.12265,41.3812,7,0,0,0
0,1406031908,923506,2.44906,17.5529,-35.6327,39.7968,-8.69398,-0.519815,3.28792,9.30945,0.888623,6.09278,-0.785943,41.4683,7,0,0,0
0,1406031909,924509,2.5603,17.6082,-35.5109,39.7194,-8.70328,-0.498777,3.30031,9.32137,1.14962,4.71429,0.0128162,41.5248,7,0,0,0
0,1406031910,925519,2.60129,17.9997,-35.5951,39.9721,-8.68674,-0.518995,3.34496,9.32296,0.577166,6.04909,-1.23402,41.497,7,0,0,0
0,1406031911,926522,2.35869,17.8848,-35.4754,39.7987,-8.76234,-0.472749,3.28966,9.37144,-1.22035,5.3209,-1.63237,41.4339,7,0,0,0
0,1406031912,927530,2.40139,17.8357,-35.3492,39.6666,-8.67815,-0.485908,3.29828,9.29651,0.414344,5.19506,-2.37516,41.389,7,0,0,0
0,1406031913,928537,2.35515,17.8873,-35.7029,40.0025,-8.71676,-0.514673,3.29281,9.33217,1.12047,5.1452,-0.995516,41.4128,7,0,0,0
0,1406031914,929538,2.6109,17.5897,-36.0177,40.1683,-8.70517,-0.500207,3.30036,9.32323,0.496183,5.641,-0.924238,41.427,6,0,0,0
0,1406031915,930542,2.51874,17.8721,-35.6321,39.9425,-8.71397,-0.598447,3.34781,9.3541,1.24516,4.51815,-0.253425,41.5846,8,0,0,0
