0,1405348953,utime,,bx(uT),by(uT),bz(uT),,B(uT),ax,,,,ay,,az,,,,,A,,,,,gx,,,gy,,,,gz,,,T(C),rate,,track,tilt,roll
0,1405348953,mins,,-1000,-1000,-1000,,,,,0,,,,-2000,-2000,-2000,,0,,,-2000,,-2000,-2000,-2000,,0,,0,,-180,-180
0,1405348953,maxs,,,1000,,1000,,1000,,,,1000,,,2000,,2000,,2000,2000,,2000,,,2000,,2000,,2000,,37000,360,180,180
0,1405348953,attr,,,,,F,,,,,F,,,,,F,,,,,,F,,,,,,F,,,,,F,,,,F,,,,,F,,,,,F,,,,,,F,,,,,F,,,,,F,,,,,I,F,F,F
0,1405348954,2384,4.98471,3.34862,-8.31804,10.2592,-1.42531,-0.0857827,0.600479,1.54902,0.347826,1.06667,0.324638,2.92222,0,0,0,0
0,1405348955,3386,29.8333,20.3043,-49.6314,61.3642,-8.5801,-0.504862,3.5366,9.29412,1.82208,3.86688,-0.0807989,29.6672,10,0,0,0
0,1405348956,4387,30.0712,19.9559,-49.9664,61.6373,-8.61517,-0.520158,3.5232,9.32227,2.71173,4.41127,-1.48819,29.6318,11,0,0,0
0,1405348957,5397,30.0245,20.5432,-49.7497,61.6322,-8.5949,-0.528927,3.57033,9.32198,2.41173,4.63129,-0.934871,29.6975,11,0,0,0
0,1405348958,6402,30.0715,20.3886,-49.6237,61.502,-8.60816,-0.538219,3.53732,9.32216,2.53583,4.56136,-0.285746,29.6945,11,0,0,0
0,1405348959,7406,30.2658,20.3358,-49.6955,61.6377,-8.6183,-0.50058,3.57143,9.34241,2.40894,5.11735,-1.06315,29.7767,11,0,0,0
0,1405348960,8410,29.9573,20.1257,-49.2974,61.096,-8.5844,-0.51752,3.57157,9.31213,2.75412,4.23131,-0.965487,29.6937,11,0,0,0
0,1405348961,9411,29.9943,20.3017,-49.7086,61.5042,-8.61059,-0.5153,3.51544,9.31483,1.39461,4.23015,-1.47508,29.6807,11,0,0,0
0,1405348962,10414,29.6106,20.0056,-50.0053,61.4617,-8.59749,-0.520926,3.52889,9.30813,2.03371,4.28438,-1.25704,29.8107,9,0,0,0
0,1405348963,11418,30.3694,20.0392,-49.9728,61.8154,-8.57342,-0.525416,3.54381,9.29184,1.84225,4.21167,-0.355794,29.8373,11,0,0,0
0,1405348964,12425,30.0377,20.4993,-49.7724,61.6423,-8.56785,-0.532564,3.56829,9.29647,2.3519,4.83178,-0.662957,29.8411,11,0,0,0
0,1405348965,13430,30.08,20.5876,-49.4192,61.4078,-8.59999,-0.527194,3.51467,9.30542,1.58446,4.73841,0.555422,29.7881,9,0,0,0
0,1405348966,14432,29.8073,20.2986,-49.7198,61.4212,-8.58724,-0.524349,3.56513,9.31267,2.18618,3.7006,-1.14127,29.8515,10,0,0,0
0,1405348967,15433,29.8999,20.1875,-49.3826,61.157,-8.60724,-0.527805,3.57503,9.3351,2.46865,3.20036,-0.804524,29.9053,11,0,0,0
0,1405348968,16435,29.974,20.2781,-50.1554,61.8482,-8.5775,-0.506004,3.52253,9.28643,3.18978,5.00635,-0.943158,29.8424,11,0,0,0
0,1405348969,17441,30.3273,20.5871,-50.0218,62.0141,-8.61837,-0.526201,3.57377,9.34478,2.26455,3.7136,-0.69409,29.899,10,0,0,0
0,1405348970,18450,30.3178,20.0236,-50.2812,62.0348,-8.59614,-0.52575,3.57042,9.32298,2.01016,3.5086,-2.37334,29.9853,11,0,0,0
0,1405348971,19453,30.2173,20.2612,-49.8705,61.7306,-8.59498,-0.531887,3.56664,9.32081,1.26486,5.25757,-1.35033,29.9576,11,0,0,0
0,1405348972,20456,30.3058,20.2013,-49.796,61.6942,-8.59789,-0.524538,3.52745,9.30816,3.14778,4.12563,-0.656745,29.9933,10,0,0,0
0,1405348973,21461,30.0886,20.4654,-49.8268,61.6998,-8.5796,-0.520409,3.53198,9.29275,1.88047,4.82783,-0.662025,29.9499,10,0,0,0
0,1405348974,22462,30.0814,20.2412,-49.4941,61.3536,-8.58989,-0.513121,3.57101,9.31674,2.01408,4.78232,-0.24185,29.9746,11,0,0,0
0,1405348975,23468,29.9267,20.5349,-49.3305,61.2436,-8.6052,-0.516189,3.50852,9.30729,1.87445,4.17657,-0.350599,30.0785,11,0,0,0
0,1405348976,24470,30.1518,20.4002,-49.3364,61.3138,-8.59733,-0.522806,3.56725,9.32269,2.19475,4.89988,-2.00444,30.1086,11,0,0,0
0,1405348977,25471,30.122,20.1716,-49.7225,61.535,-8.59165,-0.514074,3.57342,9.31934,1.06834,5.54113,-1.46973,30.0596,11,0,0,0
0,1405348978,26476,30.0971,20.4058,-49.8993,61.7428,-8.59618,-0.50665,3.55172,9.31482,2.12679,5.35625,-1.03192,30.1403,11,0,0,0
0,1405348979,27479,29.9317,20.2077,-49.589,61.346,-8.59049,-0.525991,3.57058,9.31784,2.52594,4.7944,-1.05653,30.1164,10,0,0,0
0,1405348980,28482,29.6538,19.9223,-49.5592,61.093,-8.58063,-0.515445,3.57017,9.30801,2.45908,5.15251,-0.719453,30.1142,10,0,0,0
0,1405348982,30664,29.6962,19.9352,-49.5715,61.1278,-8.58244,-0.502123,3.56902,9.3085,2.59416,5.02419,-1.01694,30.1494,1,0,0,0
0,1405348983,31670,29.4175,19.9123,-49.7892,61.1626,-8.59232,-0.524686,3.55532,9.31362,3.71865,5.2961,-1.3492,30.3742,7,0,0,0
0,1405348984,32671,29.7516,20.0133,-49.8178,61.38,-8.59007,-0.522567,3.55442,9.31108,0.990816,4.39194,-0.425326,30.332,7,0,0,0
0,1405348985,33767,29.8569,20.2762,-49.6745,61.4013,-8.58996,-0.529815,3.5531,9.31089,1.67637,4.24636,-1.77107,30.3046,6,0,0,0
0,1405348986,34771,30.0375,20.4231,-49.857,61.6853,-8.58855,-0.534557,3.54154,9.30545,2.26881,4.89072,-0.792421,30.3952,6,0,0,0
0,1405348987,35783,30.1304,20.3843,-49.5933,61.5049,-8.60961,-0.510108,3.5308,9.31945,2.97575,5.28729,-0.743385,30.5115,7,0,0,0
0,1405348988,36785,30.3213,20.1143,-49.5607,61.4836,-8.59696,-0.519818,3.51527,9.30242,2.64639,4.05312,-0.42025,30.383,6,0,0,0
0,1405348989,37789,30.0575,20.6466,-49.6745,61.6221,-8.59139,-0.537321,3.55989,9.31523,3.23377,5.57474,-1.00034,30.4042,6,0,0,0
0,1405348990,38790,30.2039,20.3079,-50.0994,61.9244,-8.59732,-0.530749,3.54866,9.31604,1.73916,4.70507,-0.673462,30.5176,7,0,0,0
0,1405348991,39792,30.0325,20.1904,-49.9006,61.6415,-8.60433,-0.533458,3.55333,9.32444,1.88088,5.3421,-1.10649,30.442,7,0,0,0
0,1405348992,40805,30.1209,20.3781,-49.4739,61.402,-8.58938,-0.54636,3.53962,9.30617,0.699191,5.30531,-1.1829,30.5861,6,0,0,0
0,1405348993,41814,30.4609,20.4393,-50.0443,62.0489,-8.60794,-0.526526,3.54755,9.32518,3.46327,4.04817,-0.688086,30.513,6,0,0,0
0,1405348994,42820,30.2808,20.0711,-49.8215,61.66,-8.59299,-0.530555,3.53015,9.305,0.820815,5.89327,-1.65825,30.7386,7,0,0,0
0,1405348995,43823,30.2579,20.0365,-49.6126,61.4688,-8.6,-0.512712,3.55534,9.32005,2.49976,3.87282,-0.373817,30.7162,6,0,0,0
0,1405348996,44831,29.9355,20.2219,-49.7466,61.4799,-8.58197,-0.557966,3.56816,9.31092,3.40732,5.00413,-1.45217,30.7782,6,0,0,0
0,1405348997,45832,30.2414,20.4657,-49.5343,61.5389,-8.59058,-0.541045,3.55337,9.31221,2.37761,4.88485,-1.12079,30.7948,7,0,0,0
0,1405348998,46841,29.9422,20.2508,-49.7484,61.4941,-8.58125,-0.524177,3.54434,9.29919,1.88042,4.46337,-0.531227,30.7645,7,0,0,0
0,1405348999,47850,30.1516,20.0346,-49.627,61.4276,-8.58577,-0.507238,3.51898,9.29279,2.67587,5.28494,-1.63346,30.7553,6,0,0,0
0,1405349000,48855,30.1699,20.6031,-49.7905,61.756,-8.58444,-0.554025,3.53291,9.29952,1.99933,4.67684,-1.91908,30.7442,7,0,0,0
0,1405349001,49871,30.1579,20.2055,-49.4416,61.337,-8.60764,-0.533135,3.54104,9.3228,2.97666,4.45007,-1.86872,30.8597,8,0,0,0
0,1405349002,50878,30.1513,20.5371,-49.3603,61.3784,-8.58168,-0.537792,3.55211,9.30333,0.656938,4.88657,-1.4204,30.8437,6,0,0,0
0,1405349003,51884,30.2281,20.0568,-49.7061,61.5363,-8.58937,-0.526126,3.56079,9.31307,1.86997,3.86728,-1.04519,30.8554,7,0,0,0
0,1405349004,52887,30.3229,20.4952,-49.3759,61.4614,-8.60317,-0.508392,3.54466,9.31867,2.53474,5.38424,-1.9704,30.7458,6,0,0,0
0,1405349005,53889,30.1273,20.3627,-49.7885,61.6538,-8.60681,-0.54149,3.54383,9.32358,2.38257,4.33622,-2.14985,30.863,6,0,0,0
0,1405349006,54895,29.9566,20.5394,-49.1717,61.1319,-8.61636,-0.526154,3.57133,9.342,2.35664,4.59838,-1.09402,30.8888,6,0,0,0
0,1405349007,55901,30.4005,20.7704,-49.5032,61.6941,-8.58697,-0.530182,3.54954,9.30679,1.54025,5.20858,-1.03284,30.8681,6,0,0,0
0,1405349008,56906,30.1698,20.5304,-49.6225,61.5963,-8.59402,-0.535164,3.54665,9.31248,2.60749,5.49751,-0.539568,30.9915,6,0,0,0
0,1405349009,57907,29.9112,20.5286,-49.7329,61.5586,-8.62045,-0.527167,3.55979,9.34142,4.00796,4.26879,-1.71225,30.963,6,0,0,0
0,1405349010,58913,30.0316,20.5274,-49.6417,61.5432,-8.59609,-0.519805,3.56876,9.32196,2.90348,4.25624,-1.58462,30.9135,7,0,0,0
0,1405349012,60145,30.011,20.4548,-49.6097,61.4832,-8.59532,-0.525553,3.56785,9.32122,2.46594,3.98744,-1.04226,30.9222,4,0,0,0
0,1405349013,61150,29.8752,20.0696,-49.6061,61.2869,-8.60623,-0.54253,3.52617,9.3164,2.28438,3.93087,-1.0284,31.0562,4,0,0,0
0,1405349014,62157,30.2218,20.27,-49.5537,61.4801,-8.60424,-0.530584,3.57347,9.33189,2.0441,3.35666,-1.16014,30.9854,7,0,0,0
0,1405349015,63159,30.0939,20.3395,-49.5096,61.4047,-8.60265,-0.531454,3.56606,9.32764,3.60517,5.28977,-0.933708,31.0454,7,0,0,0
0,1405349016,64164,30.2103,20.5758,-49.3628,61.4224,-8.58834,-0.533357,3.53098,9.30118,3.12329,4.75272,-1.57933,31.0599,7,0,0,0
0,1405349017,65173,30.0615,20.1089,-49.8906,61.6209,-8.59956,-0.524648,3.54852,9.31771,2.12602,4.52001,-1.15647,31.0922,6,0,0,0
0,1405349018,66175,30.4038,20.4003,-49.8571,61.8571,-8.62011,-0.528197,3.55453,9.33917,3.40453,4.40898,-0.892282,31.0744,7,0,0,0
0,1405349019,67183,30.2564,20.0883,-49.7637,61.6069,-8.59976,-0.526075,3.52107,9.30755,1.02205,4.50239,-1.97374,31.1182,7,0,0,0
0,1405349020,68191,29.8701,20.1864,-49.7018,61.4002,-8.58644,-0.531402,3.52614,9.29747,3.84747,3.37633,0.0257891,31.0693,7,0,0,0
0,1405349021,69976,29.9272,20.0835,-49.7777,61.4557,-8.59508,-0.517671,3.54191,9.31067,1.14119,4.97759,-0.422574,31.1546,4,0,0,0
0,1405349022,70980,30.0489,20.3201,-49.8879,61.6818,-8.60568,-0.517986,3.53949,9.31955,1.60327,4.5272,-1.60916,31.0479,6,0,0,0
0,1405349023,71989,29.9552,20.4977,-49.9103,61.7132,-8.57598,-0.540876,3.54292,9.29474,1.37147,3.51207,-1.18617,31.2177,6,0,0,0
0,1405349024,72998,30.1273,20.3644,-49.7087,61.5899,-8.58443,-0.515847,3.53695,9.29885,1.52058,5.33753,-1.85524,31.2387,6,0,0,0
0,1405349026,74008,30.1288,20.374,-49.7584,61.634,-8.60378,-0.549009,3.5391,9.31943,2.05659,4.05855,-1.31024,31.275,6,0,0,0
0,1405349027,75015,30.2558,20.0338,-49.7467,61.5752,-8.59582,-0.537118,3.54384,9.31319,1.56669,4.65519,-1.20595,31.2404,6,0,0,0
0,1405349028,76022,30.5197,20.1051,-49.6728,61.6689,-8.61056,-0.514222,3.55847,9.33107,1.78216,4.05453,-1.60492,31.3205,7,0,0,0
0,1405349029,77024,30.0759,20.3866,-49.1189,61.097,-8.59903,-0.523116,3.55656,9.3202,3.17877,4.95395,-1.62851,31.3371,7,0,0,0
0,1405349030,78032,30.179,20.395,-49.5384,61.488,-8.58917,-0.503985,3.56516,9.31334,0.669325,5.54242,-1.64462,31.4003,7,0,0,0
0,1405349031,79035,29.9755,20.5159,-49.8321,61.6657,-8.57954,-0.553879,3.57124,9.30962,1.05234,4.10448,-1.87874,31.4105,7,0,0,0
0,1405349032,80037,30.1169,20.6105,-48.9384,61.0475,-8.60877,-0.50466,3.54749,9.32471,1.6129,5.77874,-1.85783,31.4015,6,0,0,0
0,1405349033,81048,30.1237,20.4649,-49.8165,61.7084,-8.5935,-0.529084,3.55505,9.31486,0.609341,5.26652,-0.227187,31.3961,7,0,0,0
0,1405349034,82056,30.2558,20.3244,-49.3166,61.3239,-8.60365,-0.536433,3.54272,9.31995,2.31752,3.53512,-1.64754,31.3773,7,0,0,0
0,1405349035,83064,30.1481,20.1206,-50.0365,61.785,-8.6057,-0.516843,3.54077,9.31999,2.01911,4.38604,-0.637782,31.4923,7,0,0,0
0,1405349036,84065,29.8615,20.2556,-49.1967,61.0108,-8.59642,-0.521788,3.54853,9.31466,0.706038,5.25204,-0.741618,31.4796,7,0,0,0
0,1405349037,85068,30.0664,20.1907,-49.2979,61.1714,-8.59347,-0.520374,3.55973,9.31613,3.14071,5.05758,-1.20999,31.4491,6,0,0,0
0,1405349038,86069,29.9968,20.3265,-49.6789,61.4896,-8.5919,-0.506168,3.55596,9.31245,0.875148,4.43092,-1.42224,31.51,7,0,0,0
0,1405349039,87077,29.942,20.231,-49.5534,61.3299,-8.59254,-0.521522,3.53228,9.30488,2.96116,3.86657,-0.975421,31.4451,6,0,0,0
0,1405349040,88086,30.199,20.2616,-49.4746,61.4024,-8.59422,-0.505084,3.54126,9.30893,0.919001,4.171,-2.6477,31.6248,6,0,0,0
0,1405349041,89104,29.982,20.3939,-49.7963,61.5996,-8.59471,-0.522788,3.52504,9.30421,2.42036,5.05073,-0.52805,31.6718,7,0,0,0
0,1405349042,90106,30.1223,20.5998,-49.4348,61.4451,-8.59467,-0.519792,3.55829,9.31665,2.61129,4.78352,-1.58238,31.5478,6,0,0,0
0,1405349043,91113,30.1434,20.4031,-49.7692,61.6594,-8.58888,-0.529407,3.54301,9.30602,3.12266,5.90483,-0.813112,31.7018,7,0,0,0
0,1405349044,92121,30.2239,20.5334,-49.8816,61.8327,-8.58471,-0.537069,3.53989,9.30142,0.401179,4.70484,0.185672,31.581,6,0,0,0
0,1405349045,93123,30.0612,20.4369,-49.2699,61.228,-8.58363,-0.526343,3.54693,9.30249,2.56885,4.82262,-0.48158,31.7922,6,0,0,0
0,1405349046,94136,29.8047,20.1035,-49.5505,61.2187,-8.61062,-0.515331,3.55105,9.32836,1.21182,4.4364,-1.50576,31.6481,7,0,0,0
0,1405349047,95144,30.0484,20.597,-49.7138,61.6328,-8.60602,-0.520379,3.51137,9.30935,0.0103273,5.5832,-1.78164,31.8254,6,0,0,0
0,1405349048,96147,30.0398,20.3995,-49.7111,61.5607,-8.60338,-0.512052,3.56627,9.3273,2.80433,4.52295,-0.684357,31.7917,7,0,0,0
0,1405349049,97152,29.9353,20.1251,-49.7035,61.4132,-8.59752,-0.536232,3.52757,9.30853,0.22133,6.03563,-0.315967,31.9085,6,0,0,0
0,1405349050,98154,30.2593,20.2814,-49.6782,61.6026,-8.58881,-0.535831,3.5399,9.30514,3.07144,5.78608,-1.68729,31.9969,7,0,0,0
0,1405349051,99159,30.3998,20.2747,-49.9973,61.9269,-8.61394,-0.538407,3.56099,9.33651,1.56629,4.8888,-1.68869,31.8737,6,0,0,0
0,1405349052,100164,30.4741,20.4314,-49.5961,61.6919,-8.61373,-0.519376,3.55018,9.33112,2.5299,5.3908,-0.203898,31.999,7,0,0,0
0,1405349053,101165,30.211,20.2044,-49.6317,61.516,-8.60859,-0.527817,3.52479,9.31722,1.45932,4.31821,-0.895524,31.9757,6,0,0,0
0,1405349054,102173,30.1392,20.1412,-49.7428,61.5499,-8.59933,-0.523151,3.57252,9.32658,2.57429,4.9691,-1.64526,32.1127,6,0,0,0
0,1405349055,103182,30.0905,20.3662,-49.262,61.2124,-8.5971,-0.530357,3.49971,9.29727,0.866451,4.35368,-0.703131,32.1245,7,0,0,0
0,1405349056,104185,30.2185,20.0365,-49.4175,61.292,-8.60168,-0.514972,3.55076,9.31998,2.28689,4.90886,-1.10056,32.1427,6,0,0,0
0,1405349057,105188,30.0462,20.4413,-49.7499,61.6091,-8.58313,-0.521197,3.52546,9.29358,1.01008,4.07702,-1.03156,32.2194,6,0,0,0
0,1405349058,106190,30.0868,20.5205,-49.696,61.6116,-8.59844,-0.507817,3.53163,9.30932,1.55201,4.19542,-1.98513,32.2467,7,0,0,0
0,1405349059,107192,30.2038,19.998,-49.7129,61.5106,-8.60313,-0.529803,3.55019,9.32193,2.63165,3.66613,-1.82296,32.2329,6,0,0,0
0,1405349060,108197,30.1772,20.3436,-49.3026,61.2803,-8.5939,-0.538437,3.54127,9.31051,1.00486,4.15843,-1.48217,32.2589,7,0,0,0
0,1405349061,109208,29.9779,20.2927,-49.2989,61.1625,-8.59785,-0.524603,3.54498,9.31478,1.56136,4.82115,-1.81264,32.1437,6,0,0,0
0,1405349062,110209,30.1579,20.3467,-49.5058,61.4354,-8.60395,-0.48841,3.54621,9.31891,2.68054,5.82781,1.0166,32.2042,6,0,0,0
0,1405349063,111216,30.095,20.3177,-49.748,61.5904,-8.59643,-0.527318,3.53914,9.3114,2.03106,4.93322,-2.44287,32.2798,6,0,0,0
0,1405349064,112219,29.9961,20.1148,-49.2896,61.1051,-8.60644,-0.531856,3.51792,9.31286,2.95134,5.85263,-0.965367,32.2061,6,0,0,0
0,1405349065,113222,29.9874,20.4264,-49.6056,61.4589,-8.58611,-0.512901,3.55133,9.30571,1.99507,5.26594,-1.38832,32.1941,7,0,0,0
0,1405349066,114227,30.3005,20.264,-49.5001,61.4736,-8.59932,-0.507631,3.55028,9.31721,2.00375,5.85927,-1.14714,32.214,6,0,0,0
0,1405349067,115232,29.9941,20.2661,-49.7093,61.4929,-8.58465,-0.520362,3.5472,9.3032,2.62324,5.76824,-1.56671,32.1139,6,0,0,0
0,1405349068,116237,30.1956,20.2126,-49.6643,61.5375,-8.60346,-0.512737,3.56164,9.32565,1.89768,4.90956,-1.32627,32.2061,6,0,0,0
0,1405349069,117239,30.0153,20.3478,-49.7928,61.5977,-8.5961,-0.531188,3.57122,9.32356,2.98116,5.01632,-1.00203,32.2344,6,0,0,0
0,1405349070,118247,29.822,20.4638,-49.9532,61.672,-8.59941,-0.52332,3.5607,9.32214,2.9274,4.99679,-1.1611,32.1887,6,0,0,0
0,1405349071,119255,30.2232,20.3639,-49.5476,61.5068,-8.62043,-0.501474,3.52035,9.32503,0.789364,5.42821,-0.796861,32.2245,6,0,0,0
0,1405349072,120261,30.1983,20.2871,-49.6757,61.5726,-8.601,-0.521535,3.53145,9.31238,2.8499,4.35138,-1.05109,32.2599,6,0,0,0
0,1405349073,121271,30.0926,20.3239,-49.6335,61.4989,-8.58568,-0.50143,3.53854,9.29982,2.16203,4.16857,-1.29928,32.1391,6,0,0,0
0,1405349074,122278,29.9376,20.3249,-49.7383,61.5082,-8.5749,-0.513228,3.57058,9.30276,1.20975,4.09543,-1.36653,32.2474,7,0,0,0
0,1405349075,123283,30.1497,20.1687,-49.5762,61.4295,-8.6041,-0.53739,3.56134,9.32751,1.36474,4.60475,-1.38751,32.239,7,0,0,0
0,1405349076,124293,30.2366,20.3751,-49.6417,61.593,-8.57954,-0.547652,3.53286,9.2946,3.46026,4.8502,-0.508529,32.2253,7,0,0,0
0,1405349077,125298,30.2655,20.2237,-49.1758,61.1822,-8.59724,-0.507713,3.55056,9.31541,0.564397,4.61793,-1.12179,32.1579,7,0,0,0
0,1405349078,126307,30.1093,20.1066,-49.4725,61.3056,-8.6019,-0.520627,3.52253,9.30978,3.08497,4.73073,-0.194411,32.1824,5,0,0,0
0,1405349079,127317,30.1441,20.24,-49.3374,61.2577,-8.5976,-0.525196,3.58532,9.33001,2.05413,5.54456,-0.438148,32.3233,8,0,0,0
0,1405349080,128318,29.8696,20.4604,-49.6291,61.4318,-8.59389,-0.533408,3.5432,9.31095,4.02392,4.2777,-1.57195,32.2326,7,0,0,0
0,1405349081,129325,30.2742,20.0639,-49.5971,61.4732,-8.59689,-0.511373,3.53457,9.3092,2.73454,4.2361,-1.57501,32.3437,7,0,0,0
0,1405349082,130332,30.1166,20.1105,-49.6959,61.4909,-8.59318,-0.52225,3.52103,9.30125,2.96311,4.36142,-2.40355,32.2953,7,0,0,0
0,1405349083,131345,29.9601,20.2788,-49.69,61.4649,-8.5957,-0.526292,3.53245,9.30812,2.3103,4.82531,-1.96041,32.3945,7,0,0,0
0,1405349084,132347,30.264,20.3205,-49.4816,61.4594,-8.59971,-0.513169,3.55158,9.31837,1.5196,5.83084,-2.18714,32.4913,7,0,0,0
0,1405349085,133351,30.236,20.4016,-49.4393,61.4384,-8.60018,-0.518995,3.54019,9.31479,2.31644,6.15169,-0.597361,32.4116,7,0,0,0
0,1405349086,134361,30.1709,20.3428,-49.7267,61.6186,-8.61113,-0.538113,3.53556,9.32423,1.57776,4.38103,-0.219055,32.5182,7,0,0,0
0,1405349087,135368,30.2145,20.3369,-49.6229,61.5544,-8.61258,-0.515306,3.53871,9.32548,2.70799,5.48615,-1.60425,32.5003,7,0,0,0
0,1405349088,136371,30.0475,20.2846,-49.641,61.4699,-8.60857,-0.512493,3.54606,9.32442,1.81107,5.12943,-2.50082,32.5085,6,0,0,0
0,1405349089,137374,29.836,20.517,-50.1421,61.8495,-8.5957,-0.525402,3.56309,9.31975,1.61203,5.04388,-1.79218,32.4715,6,0,0,0
0,1405349090,138379,30.0264,20.4503,-49.3126,61.2497,-8.60528,-0.528448,3.53025,9.31626,2.03115,4.81191,-0.812735,32.6292,6,0,0,0
0,1405349091,139388,30,20.1578,-49.1079,60.9748,-8.59456,-0.526963,3.55514,9.31575,2.82931,4.64897,-0.418908,32.5718,7,0,0,0
0,1405349092,140392,29.9621,20.6033,-49.1979,61.1772,-8.60925,-0.486788,3.51665,9.31251,2.65106,5.13875,-1.33459,32.5605,6,0,0,0
0,1405349093,141394,30.1954,20.0945,-49.7077,61.5337,-8.60607,-0.496569,3.55344,9.32405,3.9177,3.83468,-2.03121,32.6458,7,0,0,0
0,1405349094,142395,29.9624,20.2607,-49.4155,61.2384,-8.59119,-0.551622,3.52993,9.30447,1.19996,5.26373,-1.69283,32.5429,7,0,0,0
0,1405349095,143401,30.2284,20.2433,-49.9738,61.8136,-8.59413,-0.473045,3.55063,9.31073,0.624503,5.09709,-1.4427,32.5884,7,0,0,0
0,1405349096,144402,29.8765,20.3856,-49.3214,61.1619,-8.58227,-0.564481,3.51308,9.29063,0.960311,5.53463,-1.92317,32.6467,6,0,0,0
0,1405349097,145414,29.9391,20.427,-49.5432,61.3851,-8.61123,-0.541768,3.54701,9.32888,2.69641,5.04294,-1.40714,32.7224,6,0,0,0
0,1405349098,146417,30.0681,20.3131,-49.6108,61.465,-8.59586,-0.518292,3.52639,9.30553,2.65851,6.30388,-1.31743,32.622,7,0,0,0
0,1405349099,147425,30.2336,20.2073,-49.29,61.2528,-8.6072,-0.531392,3.51,9.31055,1.4719,4.50949,-1.81091,32.6942,6,0,0,0
0,1405349100,148435,30.0519,20.3073,-49.4548,61.3293,-8.5988,-0.531248,3.52996,9.31033,3.75299,4.83689,0.244699,32.6458,6,0,0,0
0,1405349101,149446,29.884,20.0348,-49.0166,60.8035,-8.59649,-0.530109,3.54162,9.31256,2.2869,5.07681,-0.878076,32.6678,7,0,0,0
0,1405349102,150448,29.7512,20.4501,-49.4397,61.2178,-8.5975,-0.526401,3.5477,9.3156,0.632657,5.2018,-0.978928,32.6765,6,0,0,0
0,1405349103,151452,30.0596,20.4322,-49.5223,61.4289,-8.60795,-0.52139,3.60437,9.34666,1.3027,6.24188,-1.15675,32.6692,6,0,0,0
0,1405349104,152459,30.0632,20.7014,-49.3965,61.4195,-8.60316,-0.531176,3.57403,9.33114,0.694039,4.93454,-1.18328,32.7109,6,0,0,0
0,1405349105,153469,30.4009,20.22,-49.555,61.5529,-8.59769,-0.525597,3.51295,9.30254,3.81733,5.00219,-0.411398,32.7187,7,0,0,0
0,1405349106,154471,29.9929,20.234,-49.3099,61.1592,-8.582,-0.510847,3.53752,9.29655,3.44534,4.56558,-1.72406,32.7819,7,0,0,0
0,1405349107,155474,29.9891,20.3637,-49.7107,61.5239,-8.60782,-0.529312,3.54792,9.32537,0.425219,4.56759,-0.775659,32.7917,7,0,0,0
0,1405349108,156477,30.2189,20.0372,-49.7793,61.5845,-8.61532,-0.494916,3.52666,9.32234,1.32627,5.1608,-2.85784,32.7051,7,0,0,0
0,1405349109,157484,30.1575,20.5633,-49.6014,61.5843,-8.59421,-0.512367,3.52149,9.30182,1.91151,5.13944,-1.04251,32.7932,6,0,0,0
0,1405349110,158492,30.0488,20.2321,-48.9173,60.8701,-8.58549,-0.530356,3.53093,9.29835,2.79985,5.83187,-0.126953,32.848,6,0,0,0
0,1405349111,159506,30.0551,20.236,-49.3306,61.2071,-8.60007,-0.529009,3.54604,9.31748,1.66308,6.10217,-0.956915,32.8548,6,0,0,0
0,1405349112,160512,29.9176,20.6174,-49.4558,61.3679,-8.60003,-0.513866,3.57438,9.32742,2.91884,5.00146,-1.16668,32.8057,6,0,0,0
0,1405349113,161518,30.1815,20.1222,-49.5699,61.4248,-8.6006,-0.526138,3.53627,9.31409,-0.0300471,5.24667,-0.571717,32.8021,7,0,0,0
0,1405349114,162520,30.3023,20.0781,-49.1634,61.1424,-8.60039,-0.522977,3.54148,9.3157,2.52662,4.86196,-0.345547,32.7671,7,0,0,0
0,1405349115,163526,30.037,20.4792,-49.425,61.3551,-8.59838,-0.515345,3.56846,9.32371,0.805929,5.79338,-2.10908,32.8291,7,0,0,0
0,1405349116,164532,30.2209,20.1163,-49.8085,61.6348,-8.60094,-0.523072,3.52999,9.31186,2.44501,4.7725,-1.21504,32.7763,6,0,0,0
0,1405349117,165536,30.0262,20.221,-49.5077,61.3308,-8.60141,-0.521521,3.54098,9.31637,0.725927,5.61074,-0.930244,32.881,6,0,0,0
0,1405349118,166539,29.9909,20.2921,-49.2851,61.1575,-8.61507,-0.519089,3.54883,9.33183,0.754989,4.02569,-0.989033,32.9078,6,0,0,0
0,1405349119,167540,29.8511,20.2731,-49.7019,61.4196,-8.58379,-0.519948,3.50765,9.28738,2.55988,4.42506,-1.96146,32.8346,7,0,0,0
0,1405349120,168551,30.0682,20.3569,-49.4805,61.3744,-8.57915,-0.534609,3.55918,9.30352,1.56734,4.1996,-1.57335,32.7432,6,0,0,0
0,1405349121,169556,30.0737,20.2513,-49.5787,61.4214,-8.61234,-0.539242,3.51997,9.31952,0.990094,5.40472,-0.802879,33.0334,6,0,0,0
0,1405349122,170568,30.0708,19.9046,-49.4723,61.2205,-8.61601,-0.537839,3.55519,9.33618,1.98955,4.12112,-1.98152,32.8363,6,0,0,0
0,1405349123,171570,30.1414,20.3322,-49.0927,61.0901,-8.593,-0.514108,3.55425,9.31325,3.48347,4.50252,-1.34462,32.8459,6,0,0,0
0,1405349124,172571,30.1502,20.5325,-49.4559,61.4532,-8.5971,-0.530182,3.53872,9.31202,0.403406,4.53444,-1.4734,32.806,7,0,0,0
0,1405349125,173581,30.1846,20.2922,-49.1718,61.1617,-8.58779,-0.510167,3.58711,9.32082,2.08693,3.9169,-1.04303,32.9726,6,0,0,0
0,1405349126,174587,30.338,20.3192,-49.7345,61.6991,-8.59504,-0.544531,3.50762,9.29918,0.854203,4.49787,-1.80138,32.9842,6,0,0,0
0,1405349127,175590,30.2208,20.2196,-49.4826,61.4057,-8.59109,-0.520383,3.55127,9.3107,0.863554,5.36247,-1.53298,33.0144,7,0,0,0
0,1405349128,176599,29.9564,20.2196,-49.1476,61.0058,-8.59247,-0.540158,3.56783,9.31943,3.44003,4.65905,-0.0866416,33.0899,6,0,0,0
0,1405349129,177605,29.9073,20.21,-49.2947,61.0971,-8.59554,-0.521493,3.55318,9.3156,2.84478,5.07024,-1.45197,32.9816,7,0,0,0
0,1405349130,178615,30.0391,20.3117,-49.7175,61.5365,-8.57802,-0.520629,3.55854,9.30143,0.745909,6.11064,-0.0453797,33.1078,7,0,0,0
0,1405349131,179622,29.958,20.4006,-49.2795,61.173,-8.60008,-0.525015,3.53853,9.31441,3.70632,5.43581,-1.3428,33.1302,6,0,0,0
0,1405349132,180626,30.0956,20.1728,-49.0208,60.9568,-8.61418,-0.536527,3.50811,9.31658,2.271,5.63144,-0.515884,33.1836,6,0,0,0
0,1405349133,181635,30.1873,20.5046,-49.5629,61.5483,-8.59667,-0.525265,3.5471,9.31453,2.29029,4.53182,-1.06896,33.0563,6,0,0,0
0,1405349134,182644,30.2626,20.4707,-49.4296,61.4667,-8.60246,-0.528016,3.53383,9.31499,3.42674,6.00099,-1.19787,33.2639,7,0,0,0
0,1405349135,183653,30.0894,20.3688,-49.3131,61.2539,-8.60949,-0.53483,3.5354,9.32247,3.39354,5.50909,-1.05188,33.1753,7,0,0,0
0,1405349136,184656,30.1756,20.3827,-49.4316,61.3963,-8.5878,-0.524503,3.52214,9.29682,3.08544,4.27868,-1.15348,33.0373,7,0,0,0
0,1405349137,185658,30.0205,20.1329,-49.5961,61.3705,-8.5924,-0.532036,3.52742,9.3035,0.699658,5.36542,-0.910044,33.1437,7,0,0,0
0,1405349138,186659,29.9395,20.3386,-48.9633,60.8887,-8.60407,-0.519826,3.5348,9.31639,0.610026,4.56191,-1.09237,33.1347,6,0,0,0
0,1405349139,187668,30.3168,20.4699,-49.4139,61.4806,-8.60912,-0.518561,3.55287,9.32785,3.80377,4.50371,-0.770434,33.1299,7,0,0,0
0,1405349140,188670,30.292,20.2365,-49.3714,61.3568,-8.60089,-0.528187,3.50643,9.30319,1.68241,4.59014,-0.609026,33.1894,7,0,0,0
0,1405349141,189673,30.3317,20.1075,-49.7806,61.6639,-8.59095,-0.539394,3.51782,9.29895,3.18195,4.30519,-0.958011,33.2631,7,0,0,0
0,1405349142,190687,29.8769,20.0181,-49.2595,60.9906,-8.60083,-0.523592,3.542,9.31633,2.75936,4.35766,0.300347,33.2576,7,0,0,0
0,1405349143,191689,30.1,20.3703,-49.4282,61.3523,-8.5987,-0.524383,3.56008,9.32131,1.96566,4.6707,-2.00628,33.3007,6,0,0,0
0,1405349144,192694,30.0861,19.911,-49.4909,61.2452,-8.58408,-0.526115,3.53531,9.29848,0.720421,5.80859,-1.25489,33.2779,6,0,0,0
0,1405349145,193702,30.0043,20.6086,-49.2657,61.2543,-8.60311,-0.521403,3.54047,9.31774,0.757258,5.675,-0.299824,33.2446,5,0,0,0
0,1405349146,194703,29.8721,20.2875,-49.308,61.1163,-8.58977,-0.538345,3.52184,9.29932,3.41991,5.0113,-1.02633,33.245,7,0,0,0
0,1405349147,195705,30.0439,20.6038,-49.1889,61.2103,-8.58589,-0.523916,3.5534,9.30692,2.82647,5.11608,-0.141089,33.3082,7,0,0,0
0,1405349148,196707,30.114,20.585,-49.7477,61.6882,-8.57483,-0.510854,3.55188,9.29541,1.00167,5.17863,-2.3462,33.2852,7,0,0,0
0,1405349149,197715,30.1066,20.6296,-49.3403,61.3714,-8.60966,-0.534533,3.51761,9.31588,2.28217,5.42107,-1.56591,33.4219,6,0,0,0
0,1405349150,198724,30.0548,20.1803,-49.4963,61.3222,-8.59836,-0.521661,3.54778,9.31615,1.41035,5.36581,-1.94227,33.2697,7,0,0,0
0,1405349151,199730,30.0516,20.4178,-49.3275,61.2633,-8.59594,-0.511153,3.54063,9.31061,1.25834,6.13481,-1.6736,33.3939,6,0,0,0
0,1405349152,200735,30.1901,20.4037,-49.7317,61.6523,-8.58671,-0.543542,3.5252,9.29807,2.42457,5.16569,-1.75796,33.324,6,0,0,0
0,1405349153,201744,29.936,20.3051,-49.4762,61.2891,-8.59447,-0.534055,3.52411,9.30427,1.56459,5.78606,-0.718499,33.2244,7,0,0,0
0,1405349154,202748,30.0012,20.3867,-49.6955,61.525,-8.59176,-0.526122,3.53111,9.30397,1.49817,5.70955,-1.15986,33.3209,6,0,0,0
0,1405349155,203749,29.9141,20.2652,-49.3389,61.1544,-8.61845,-0.517586,3.53168,9.32836,3.00717,5.13676,-1.48477,33.3702,6,0,0,0
0,1405349156,204752,30.2674,20.1434,-49.5739,61.4772,-8.5999,-0.52639,3.52354,9.30863,0.549713,4.9569,-1.96518,33.363,7,0,0,0
0,1405349157,205756,29.9411,20.5191,-49.7888,61.6152,-8.57531,-0.516529,3.54199,9.29239,1.48011,4.79198,-1.21667,33.3724,7,0,0,0
0,1405349158,206758,29.9377,20.4915,-49.2932,61.2045,-8.60432,-0.50548,3.53209,9.3148,1.61111,3.68115,-0.331514,33.3834,6,0,0,0
0,1405349159,207762,30.0648,20.46,-49.9583,61.7927,-8.59183,-0.528024,3.54856,9.31078,2.14985,3.79442,-1.3805,33.4452,7,0,0,0
0,1405349160,208767,29.9905,20.3357,-49.4585,61.3116,-8.59921,-0.545487,3.55034,9.31928,1.04647,6.31135,-0.281924,33.4309,7,0,0,0
0,1405349161,209773,30.271,20.1559,-49.3729,61.3211,-8.60068,-0.52208,3.5438,9.3168,1.80691,5.67973,-0.494693,33.4197,7,0,0,0
0,1405349162,210779,30.5755,19.9335,-49.4778,61.4838,-8.61859,-0.521231,3.51375,9.32192,0.161525,4.59816,-0.7332,33.4046,7,0,0,0
0,1405349163,211783,30.3242,20.1489,-49.39,61.3588,-8.58805,-0.538518,3.53757,9.30371,2.69818,5.94333,-2.38921,33.518,7,0,0,0
0,1405349164,212785,30.091,20.2987,-49.4735,61.3606,-8.59257,-0.54452,3.58426,9.32608,2.17486,6.30542,-0.989615,33.519,7,0,0,0
0,1405349165,213788,30.2087,19.922,-49.2039,61.0776,-8.59347,-0.53056,3.55243,9.31391,0.916058,5.81618,-0.163471,33.4345,7,0,0,0
0,1405349166,214792,30.1596,20.4445,-49.3605,61.3518,-8.61977,-0.500704,3.49547,9.31501,4.43555,4.56829,-1.14287,33.4569,7,0,0,0
0,1405349167,215797,30.125,20.1649,-49.2664,61.1662,-8.60784,-0.516985,3.51342,9.31162,1.81835,5.73051,-0.528446,33.4602,6,0,0,0
0,1405349168,216802,29.8978,20.2541,-49.2856,61.0997,-8.59164,-0.51636,3.53701,9.30555,3.15892,5.08236,-1.73732,33.4343,6,0,0,0
0,1405349169,217806,29.9573,20.3096,-49.5002,61.3204,-8.59923,-0.523373,3.55455,9.31963,1.78485,5.41865,-0.402072,33.3989,7,0,0,0
0,1405349170,218809,29.998,20.2338,-49.5439,61.3505,-8.58722,-0.541454,3.56837,9.31487,3.37074,6.53759,-0.689519,33.4185,6,0,0,0
0,1405349171,219815,30.1475,20.0287,-49.4435,61.2754,-8.60037,-0.515515,3.51578,9.30553,1.63954,4.46907,-0.766298,33.3854,7,0,0,0
0,1405349172,220817,30.0408,20.0024,-49.1502,60.9778,-8.58327,-0.52972,3.5525,9.30449,5.07548,5.25468,-1.73664,33.416,5,0,0,0
0,1405349173,221824,29.8587,20.4389,-49.4352,61.2628,-8.60569,-0.539945,3.53803,9.32025,2.44003,5.21863,-1.22497,33.3957,6,0,0,0
0,1405349174,222833,29.7523,20.5623,-49.7901,61.5392,-8.59798,-0.525149,3.53757,9.31211,1.72203,5.20506,-0.648928,33.4407,6,0,0,0
0,1405349175,223839,29.8599,19.9592,-49.4571,61.1227,-8.58164,-0.52285,3.55983,9.30539,0.517969,5.00349,-1.44474,33.4881,7,0,0,0
0,1405349176,224847,30.4576,20.251,-49.6006,61.6278,-8.59937,-0.529047,3.55872,9.32167,3.68155,4.53284,-1.36655,33.4819,7,0,0,0
0,1405349177,225856,29.8596,20.5848,-49.6857,61.5142,-8.59847,-0.51133,3.53833,9.31209,0.684008,4.77388,-1.86881,33.4654,6,0,0,0
0,1405349178,226861,29.681,20.2567,-49.1254,60.8654,-8.61976,-0.536246,3.53286,9.33107,2.83781,4.28443,0.303261,33.3928,6,0,0,0
0,1405349179,227866,30.2088,20.1663,-49.3957,61.3122,-8.58873,-0.536325,3.54064,9.30538,1.40003,4.58303,-1.41288,33.487,6,0,0,0
0,1405349180,228870,29.883,20.5509,-49.0632,61.0126,-8.61628,-0.522301,3.50006,9.3147,1.58305,4.31481,-0.814421,33.5428,7,0,0,0
0,1405349181,229876,29.9038,20.3114,-49.1386,61.0032,-8.59022,-0.5292,3.53629,9.30469,3.36806,5.59378,-0.0476081,33.6363,7,0,0,0
0,1405349182,230883,30.0472,19.8188,-49.2758,61.0224,-8.59349,-0.515357,3.54278,9.3094,3.74199,5.10406,-0.0434144,33.7082,5,0,0,0
0,1405349183,231892,30.0143,20.3989,-49.3516,61.2581,-8.59788,-0.52421,3.53908,9.31254,1.92371,4.26042,-1.24525,33.6952,7,0,0,0
0,1405349184,232894,30.0567,20.0636,-49.4771,61.2694,-8.5931,-0.52469,3.56948,9.31976,2.12395,4.88801,-0.119578,33.8328,6,0,0,0
0,1405349185,233895,29.7622,20.5692,-49.3986,61.23,-8.60408,-0.535038,3.52143,9.31219,0.140642,5.22605,-1.1901,33.845,7,0,0,0
0,1405349186,234903,30.002,19.9768,-48.991,60.8219,-8.60819,-0.517613,3.53449,9.31995,3.44408,5.11669,-0.416062,33.8549,7,0,0,0
0,1405349187,235906,29.9181,20.3541,-49.0817,60.9786,-8.57953,-0.539147,3.52862,9.29248,0.6035,5.54498,-0.940217,33.8505,6,0,0,0
0,1405349188,236911,30.1668,19.8918,-49.5969,61.3643,-8.61115,-0.529208,3.53397,9.32314,2.2099,4.38697,-0.772119,33.9711,6,0,0,0
0,1405349189,237913,29.9396,20.3725,-49.2264,61.1119,-8.59566,-0.523582,3.55606,9.31692,1.59253,5.46981,-0.678747,34.0681,6,0,0,0
0,1405349190,238916,29.7741,20.7725,-49.6894,61.5388,-8.57318,-0.518247,3.52372,9.28356,1.87665,5.60942,-0.615906,34.0611,7,0,0,0
0,1405349191,239920,30.0627,20.3533,-49.7701,61.6043,-8.58269,-0.53048,3.55212,9.30385,2.54308,4.37014,-0.401586,34.0232,7,0,0,0
0,1405349192,240925,29.9063,20.0798,-49.1835,60.964,-8.59217,-0.530153,3.50318,9.29401,1.01609,6.215,-0.65662,34.0769,6,0,0,0
0,1405349193,241929,29.9349,20.2937,-49.1569,61.0273,-8.58916,-0.522725,3.54588,9.307,1.48112,5.46717,-0.584464,34.0408,6,0,0,0
0,1405349194,242931,29.944,20.4543,-49.5328,61.3883,-8.60487,-0.519799,3.52626,9.31388,2.51563,5.34331,-1.88009,34.06,6,0,0,0
0,1405349195,243937,30.0591,20.4514,-49.2413,61.2087,-8.59963,-0.541284,3.52292,9.30901,1.33619,5.5051,-1.09859,34.0086,7,0,0,0
0,1405349196,244943,30.0537,20.4781,-49.2512,61.223,-8.58775,-0.531885,3.56002,9.31161,0.30431,5.3243,-0.457869,34.1063,6,0,0,0
0,1405349197,245951,29.7651,20.4388,-49.3287,61.1312,-8.59429,-0.543133,3.54783,9.31364,2.52972,4.71544,-1.51744,33.9646,7,0,0,0
0,1405349198,246957,30.0334,20.1564,-49.4614,61.2757,-8.57377,-0.506492,3.51193,9.279,1.79791,5.44765,-1.05147,33.9672,6,0,0,0
0,1405349199,247959,30.2132,20.3072,-49.4766,61.426,-8.59616,-0.53042,3.52101,9.30445,2.57213,4.39999,-0.22038,34.0014,7,0,0,0
0,1405349200,248967,29.7996,20.2878,-49.1838,60.9808,-8.59671,-0.538363,3.52724,9.30778,1.70045,4.11365,-1.34613,33.9496,7,0,0,0
0,1405349201,249975,29.8538,20.2964,-49.1698,60.9989,-8.59334,-0.458696,3.52188,9.29836,1.23917,4.65699,-0.447519,33.9738,7,0,0,0
0,1405349202,250980,29.9051,20.5709,-49.2431,61.1749,-8.60587,-0.486951,3.52992,9.31442,1.37164,5.10073,-0.597861,33.9668,7,0,0,0
0,1405349203,251984,29.7484,20.5435,-49.1056,60.9784,-8.59259,-0.532486,3.54119,9.30893,2.38356,5.79557,-1.06538,33.9979,6,0,0,0
0,1405349204,252992,30.2849,20.3818,-49.3563,61.3892,-8.59388,-0.555825,3.53827,9.31037,0.735544,5.37782,-2.61872,34.1404,6,0,0,0
0,1405349205,253999,29.8316,20.187,-49.2419,61.0098,-8.59558,-0.529589,3.5454,9.31312,1.74807,5.68089,-0.517622,34.168,7,0,0,0
0,1405349207,255005,29.7495,20.8449,-49.222,61.1748,-8.59146,-0.509722,3.53589,9.3046,2.46994,5.35045,-1.40787,34.1428,7,0,0,0
0,1405349208,256006,29.8156,20.3141,-49.2102,61.0187,-8.58317,-0.558095,3.5085,9.28934,2.11577,4.91681,-1.78399,34.1835,7,0,0,0
0,1405349209,257015,29.9196,20.0371,-49.2987,61.0494,-8.60689,-0.577718,3.54644,9.32682,3.01156,4.68222,-1.7834,34.1896,5,0,0,0
0,1405349210,258019,29.8849,20.6778,-49.0943,61.0813,-8.59148,-0.515336,3.53795,9.3057,0.959814,5.10479,-1.59057,34.2722,6,0,0,0
0,1405349211,259027,30.0461,20.1882,-49.1176,61.0153,-8.58501,-0.478254,3.55998,9.30616,0.528303,5.76901,-2.0631,34.2745,6,0,0,0
0,1405349212,260029,29.9234,20.2884,-49.5177,61.3109,-8.60199,-0.525269,3.50514,9.30356,0.733455,4.8743,-1.51786,34.2696,6,0,0,0
0,1405349213,261033,30.1557,20.0379,-49.3415,61.2002,-8.60182,-0.559501,3.54333,9.31985,0.556011,5.63708,-1.08006,34.2404,6,0,0,0
0,1405349214,262035,29.7608,20.5914,-49.3139,61.1684,-8.58263,-0.543181,3.52454,9.29403,1.97836,5.72882,-1.07074,34.3343,5,0,0,0
0,1405349215,263045,29.956,20.1102,-49.1124,60.9411,-8.59899,-0.54715,3.54207,9.31602,2.05904,6.03573,-1.52086,34.3121,7,0,0,0
0,1405349216,264051,29.8767,19.9512,-49.2592,60.9683,-8.58324,-0.537611,3.5389,9.29972,2.98991,6.19818,-1.19356,34.2805,6,0,0,0
0,1405349217,265052,29.6762,20.3456,-49.3916,61.1077,-8.60615,-0.52171,3.52147,9.31336,0.698724,6.03039,-1.24644,34.3554,8,0,0,0
0,1405349218,266060,29.9624,19.6129,-49.1172,60.7858,-8.60732,-0.546959,3.53913,9.32258,3.03853,5.22227,-0.850333,34.3272,6,0,0,0
0,1405349219,267062,30.0813,20.1396,-49.7697,61.5427,-8.58349,-0.553813,3.53614,9.29985,0.393656,7.53938,-1.07288,34.2823,7,0,0,0
0,1405349220,268063,29.6255,20.3159,-49.4284,61.103,-8.61008,-0.537661,3.54549,9.32701,0.439087,5.46549,-1.35092,34.3723,7,0,0,0
0,1405349221,269065,30.0836,19.9476,-48.9791,60.8431,-8.60314,-0.539632,3.57273,9.33111,2.72074,5.86281,-0.98003,34.3672,6,0,0,0
0,1405349222,270077,30.049,20.4284,-49.0878,61.0727,-8.59005,-0.540783,3.5433,9.30787,1.57998,5.4043,-1.00698,34.4195,6,0,0,0
0,1405349223,271082,29.9472,19.932,-48.8791,60.6901,-8.60649,-0.519889,3.5592,9.32791,2.2393,5.30427,-0.996147,34.3878,6,0,0,0
0,1405349224,272089,29.6416,20.6546,-49.357,61.1665,-8.58877,-0.522056,3.5558,9.31038,2.51784,6.39069,-0.673942,34.4229,7,0,0,0
0,1405349225,273092,30.3086,20.357,-49.1039,61.19,-8.61205,-0.530467,3.53773,9.32547,1.93863,7.03901,-1.4058,34.4503,6,0,0,0
0,1405349226,274094,29.9608,20.1829,-49.5007,61.2807,-8.61417,-0.541414,3.55042,9.33287,2.64392,4.72602,-1.9116,34.5135,7,0,0,0
0,1405349227,275096,29.9177,20.1128,-48.972,60.81,-8.61041,-0.517114,3.53047,9.32045,2.65671,4.96023,-2.13078,34.5454,7,0,0,0
0,1405349228,276101,30.0432,20.4216,-49.5076,61.4055,-8.58801,-0.505307,3.54225,9.30359,-0.10882,5.39719,-0.0638159,34.5554,6,0,0,0
0,1405349229,277105,30.1206,20.6347,-49.5397,61.5404,-8.59393,-0.535252,3.55926,9.31722,1.57498,5.20937,-1.45891,34.5656,7,0,0,0
0,1405349230,278112,30.1832,20.0942,-49.2467,61.1559,-8.59187,-0.535541,3.53219,9.30502,3.55828,5.71332,-0.339352,34.5864,6,0,0,0
0,1405349231,279116,29.7592,19.9804,-48.7699,60.5254,-8.60349,-0.531348,3.52611,9.3132,-0.317324,5.4173,-1.68853,34.6899,6,0,0,0
0,1405349232,280124,29.7336,20.2809,-49.1723,60.937,-8.59199,-0.542111,3.5198,9.30082,0.386069,5.19521,-0.822647,34.6565,6,0,0,0
0,1405349233,281131,30.1691,20.0486,-49.3659,61.23,-8.58799,-0.536973,3.52529,9.2989,2.29813,4.10732,-1.14962,34.6931,6,0,0,0
0,1405349234,282138,30.0941,20.2297,-49.723,61.5408,-8.6021,-0.524974,3.53337,9.31431,0.842496,5.60408,-0.831863,34.7506,7,0,0,0
0,1405349235,283144,30.0736,20.234,-49.5244,61.3718,-8.58473,-0.52972,3.56521,9.31068,0.945089,5.55935,-2.00048,34.7063,6,0,0,0
0,1405349236,284152,29.7426,20.4506,-48.9096,60.7865,-8.58724,-0.537922,3.53859,9.30332,2.53956,6.26691,0.60418,34.852,6,0,0,0
0,1405349237,285163,30.0239,19.9867,-49.1593,60.9716,-8.6163,-0.534189,3.5149,9.32097,3.32005,5.51757,-1.08949,34.7586,7,0,0,0
0,1405349238,286168,29.9563,20.2037,-49.4621,61.2541,-8.60804,-0.523017,3.53251,9.31937,3.58282,6.36839,-1.13806,34.8975,7,0,0,0
0,1405349239,287169,29.7552,20.7103,-48.9455,60.9093,-8.59894,-0.52066,3.55468,9.31926,1.35131,4.26735,-2.19232,34.9464,6,0,0,0
0,1405349240,288170,30.0667,20.33,-49.5393,61.4122,-8.60693,-0.542785,3.53073,9.31879,1.55046,5.03277,-0.162989,34.8766,6,0,0,0
0,1405349241,289174,29.642,20.1128,-49.34,60.9722,-8.59531,-0.52181,3.56561,9.32015,2.22577,4.76321,-1.20101,35.009,7,0,0,0
0,1405349242,290178,29.8532,20.2728,-49.0114,60.8632,-8.61459,-0.552059,3.5124,9.31949,3.67316,4.71367,-1.492,34.9712,6,0,0,0
0,1405349243,291188,29.9625,20.4158,-49.1842,61.1035,-8.596,-0.530194,3.54085,9.31182,2.53333,5.08823,-0.792306,35.0626,6,0,0,0
0,1405349244,292190,29.7562,20.716,-49.2882,61.1875,-8.59807,-0.673831,3.53088,9.31922,0.229779,5.14001,-0.880687,34.9878,7,0,0,0
0,1405349245,293196,29.7103,20.1683,-49.0245,60.7689,-8.60431,-0.462357,3.51766,9.30709,3.36415,5.05597,-1.72387,35.0437,7,0,0,0
0,1405349246,294203,29.7634,20.7193,-49.3076,61.2077,-8.59892,-0.555216,3.5623,9.32415,1.27035,4.88776,-2.59057,35.1346,7,0,0,0
0,1405349247,295205,29.9652,20.0795,-49.1484,60.9645,-8.60255,-0.555003,3.54806,9.32205,2.20655,6.00636,0.0869536,35.0873,7,0,0,0
0,1405349248,296212,30.0393,20.4114,-49.4665,61.3671,-8.59161,-0.543512,3.54015,9.30827,1.8546,4.91863,-1.87256,35.1942,7,0,0,0
0,1405349249,297220,30.1345,19.8604,-49.2249,61.0378,-8.5911,-0.537445,3.56434,9.31667,0.593396,5.45231,-1.4699,35.1141,7,0,0,0
0,1405349250,298225,29.6452,20.3816,-49.1188,60.8843,-8.60435,-0.563883,3.51428,9.31144,2.60472,5.64704,-0.884083,35.243,7,0,0,0
0,1405349251,299238,30.0358,20.3042,-49.3505,61.2362,-8.59914,-0.549923,3.53826,9.31488,2.14137,6.59982,-1.94733,35.1931,7,0,0,0
0,1405349252,300241,29.7068,20.2047,-49.2267,60.9426,-8.60941,-0.553825,3.53688,9.32407,2.10138,6.15648,-1.908,35.2179,5,0,0,0
0,1405349253,301247,29.9533,19.8379,-49.1726,60.899,-8.60125,-0.550176,3.55581,9.32352,1.91486,6.24115,-1.00859,35.228,6,0,0,0
0,1405349254,302252,29.925,19.9558,-49.1573,60.9112,-8.624,-0.52815,3.52751,9.3325,1.98968,5.19102,-1.1137,35.2072,6,0,0,0
0,1405349255,303257,29.6391,20.1864,-49.0231,60.739,-8.5744,-0.537339,3.52734,9.28715,2.78644,5.14879,-2.21777,35.3388,7,0,0,0
0,1405349256,304265,29.7243,20.4361,-49.1955,61.003,-8.58063,-0.509783,3.54479,9.29799,-0.0143417,4.90194,-1.01247,35.218,7,0,0,0
0,1405349257,305273,29.6021,20.1844,-49.1608,60.8316,-8.58157,-0.528837,3.56277,9.30679,1.78503,5.8119,-1.22796,35.3516,5,0,0,0
0,1405349258,306280,29.7931,20.4697,-49.1921,61.0451,-8.64933,-0.540922,3.51595,9.3523,2.94816,6.17005,-2.17569,35.2491,6,0,0,0
0,1405349259,307287,29.6024,20.1855,-49.0103,60.7105,-8.60537,-0.48786,3.53501,9.31594,1.60816,5.29211,-0.613124,35.2083,6,0,0,0
0,1405349260,308292,29.964,20.5904,-49.1456,61.1318,-8.6054,-0.549569,3.51873,9.31323,0.378451,4.71785,-0.851994,35.3032,7,0,0,0
0,1405349261,309301,29.7044,20.6126,-49.2372,61.0863,-8.59372,-0.552455,3.54823,9.31382,1.97801,5.20969,-1.84869,35.1676,7,0,0,0
0,1405349262,310309,30.1592,20.2718,-49.8003,61.649,-8.61507,-0.534267,3.5149,9.31984,2.04369,5.59955,-2.87868,35.2539,6,0,0,0
0,1405349263,311312,29.5371,20.6248,-48.9305,60.762,-8.59584,-0.548801,3.48662,9.29226,1.93309,6.50567,-0.555465,35.3693,7,0,0,0
0,1405349264,312321,30.2264,19.7852,-49.2386,61.0699,-8.59385,-0.533293,3.5243,9.30372,2.32634,5.52223,-1.69454,35.2671,7,0,0,0
0,1405349265,313324,30.069,20.2055,-49.2288,61.1219,-8.60977,-0.543522,3.50976,9.31354,0.562833,6.82036,0.669704,35.3532,7,0,0,0
0,1405349266,314334,29.3895,19.8401,-49.3695,60.7842,-8.59312,-0.522014,3.55725,9.31494,0.0484005,5.70505,-1.05108,35.2762,7,0,0,0
0,1405349267,315336,29.6511,20.2627,-49.5057,61.1603,-8.61664,-0.55766,3.52942,9.32814,3.02976,5.11416,-0.827016,35.3064,5,0,0,0
0,1405349268,316342,29.9737,20.5286,-49.1582,61.1259,-8.5829,-0.537102,3.58553,9.31723,0.100268,6.4607,-1.60561,35.257,7,0,0,0
0,1405349269,317349,29.96,20.0359,-49.1119,60.9181,-8.59178,-0.545745,3.50436,9.29501,2.48327,6.60258,-1.64615,35.1447,6,0,0,0
0,1405349270,318355,29.7801,20.2182,-49.1209,60.8974,-8.61023,-0.530888,3.51158,9.31392,1.7223,5.874,-1.66435,35.2229,6,0,0,0
0,1405349271,319363,30.0451,20.3418,-49.107,61.0573,-8.61938,-0.53487,3.55067,9.3374,3.37578,5.48976,-0.638294,35.2871,7,0,0,0
0,1405349272,320369,29.5806,20.4735,-49.0247,60.8079,-8.61013,-0.529341,3.55391,9.32978,1.76122,3.99998,-1.5457,35.1471,7,0,0,0
0,1405349273,321372,30.1325,20.035,-49.1678,61.0478,-8.5853,-0.522215,3.53618,9.29971,2.48094,5.13559,-1.38641,35.3208,6,0,0,0
0,1405349274,322373,29.673,20.4574,-48.834,60.6939,-8.59433,-0.510437,3.52563,9.30339,3.17547,5.3827,-1.79562,35.277,6,0,0,0
0,1405349275,323391,29.847,20.3355,-49.3801,61.1781,-8.59839,-0.543682,3.53721,9.31342,1.30315,4.37447,-1.84369,35.0928,7,0,0,0
0,1405349276,324394,29.7355,20.2778,-48.9966,60.7952,-8.58769,-0.530121,3.5211,9.29664,0.994417,4.79952,-0.733378,35.2085,6,0,0,0
0,1405349277,325395,30.085,20.0775,-48.5571,60.5476,-8.59721,-0.528698,3.53943,9.31231,2.81834,6.05743,-0.258503,35.2076,7,0,0,0
0,1405349278,326400,29.6681,20.5459,-49.2254,61.0366,-8.60728,-0.550818,3.55462,9.32866,1.55549,6.09954,-0.478099,35.254,6,0,0,0
0,1405349279,327408,29.9342,20.3956,-49.2952,61.1723,-8.6156,-0.549885,3.50474,9.31741,1.21097,5.78729,-1.36254,35.26,7,0,0,0
0,1405349280,328413,30.3929,19.8513,-49.4842,61.3717,-8.59798,-0.545539,3.5238,9.30806,1.71521,6.30726,-1.97759,35.2078,7,0,0,0
0,1405349281,329417,29.8071,20.0467,-48.8986,60.6746,-8.61207,-0.460458,3.5405,9.32281,1.88816,5.69485,-1.49886,35.2128,7,0,0,0
0,1405349282,330424,29.8961,19.9537,-48.8225,60.6264,-8.61026,-0.571236,3.54059,9.32731,2.89697,6.24343,-0.986529,35.1932,6,0,0,0
0,1405349283,331428,29.8876,20.4806,-49.377,61.2439,-8.58848,-0.57193,3.51586,9.29787,1.97932,5.75497,-0.564045,35.2237,7,0,0,0
0,1405349284,332432,29.7241,20.2064,-49.2258,60.9508,-8.59996,-0.515821,3.52228,9.30762,2.29419,6.41542,-1.90018,35.2034,7,0,0,0
0,1405349285,333441,29.8931,20.1723,-49.2792,61.0652,-8.5903,-0.525059,3.56736,9.31638,2.94284,4.79755,-2.11748,35.268,5,0,0,0
0,1405349286,334449,29.7081,20.5167,-49.1793,61.0091,-8.62001,-0.633083,3.53506,9.3382,2.32097,4.61191,-2.09264,35.3211,6,0,0,0
0,1405349287,335451,30.1909,20.12,-49.072,61.0276,-8.59349,-0.539477,3.55051,9.31371,1.12626,5.3446,-1.76219,35.3563,7,0,0,0
0,1405349288,336457,29.7231,20.3179,-49.1877,60.9566,-8.60859,-0.54156,3.52415,9.31777,0.936529,4.93391,-0.669352,35.3028,6,0,0,0
0,1405349289,337461,30.1044,20.3106,-49.251,61.192,-8.59689,-0.526244,3.52693,9.30713,-0.651788,6.40205,-0.823215,35.1884,6,0,0,0
0,1405349290,338463,29.6602,20.6773,-49.2638,61.1081,-8.58009,-0.537693,3.53132,9.29394,3.02585,6.37561,-0.78732,35.2472,6,0,0,0
0,1405349291,339466,29.7313,20.2476,-49.2114,60.9563,-8.59664,-0.540307,3.55698,9.31913,3.2212,6.4161,-1.86246,35.3104,7,0,0,0
0,1405349292,340485,30.1879,20.2474,-49.1273,61.1127,-8.62002,-0.632062,3.52084,9.33277,1.48547,5.47154,-1.35451,35.3658,6,0,0,0
0,1405349293,341490,29.5927,20.4669,-49.4617,61.1644,-8.58629,-0.538686,3.51773,9.29457,1.97364,5.54839,-0.31081,35.3918,7,0,0,0
0,1405349294,342493,29.7725,20.3291,-49.6461,61.3548,-8.59269,-0.541871,3.53646,9.30777,0.368139,5.66885,-1.01645,35.2836,7,0,0,0
0,1405349295,343499,29.8663,20.0694,-49.1818,60.9395,-8.58598,-0.508652,3.54864,9.30434,0.565966,5.41927,-0.112963,35.2705,5,0,0,0
0,1405349296,344508,29.826,20.2744,-49.3308,61.1078,-8.61403,-0.527869,3.50588,9.31511,2.5943,5.84577,-1.33544,35.2263,7,0,0,0
0,1405349297,345512,29.7805,20.2485,-49.1788,60.9543,-8.57839,-0.570243,3.54369,9.29901,1.64905,5.96937,-0.934595,35.16,7,0,0,0
0,1405349298,346518,29.9053,20.191,-49.0147,60.8641,-8.60536,-0.592809,3.52054,9.31654,2.5395,5.6077,-1.56029,35.054,7,0,0,0
0,1405349299,347521,29.9119,19.8155,-49.023,60.7506,-8.59151,-0.581084,3.54933,9.31394,3.37991,5.26658,-0.852344,35.1451,6,0,0,0
0,1405349300,348525,29.934,20.5843,-49.3432,61.2741,-8.58999,-0.588721,3.54505,9.31139,3.07241,4.54618,-2.13775,35.1076,5,0,0,0
0,1405349301,349531,29.8155,20.2784,-48.782,60.6619,-8.58509,-0.567615,3.51314,9.29344,2.53039,5.46228,-2.23824,35.0933,6,0,0,0
0,1405349302,350532,29.8567,20.3143,-49.587,61.343,-8.589,-0.56711,3.54327,9.30845,2.34077,5.95743,-1.58466,35.2042,6,0,0,0
0,1405349303,351537,29.5444,20.4874,-49.0092,60.7824,-8.6145,-0.541375,3.5112,9.31833,1.68681,6.69748,-2.2803,35.2191,6,0,0,0
0,1405349304,352546,29.854,20.3368,-49.3639,61.1689,-8.58912,-0.528026,3.55036,9.30896,3.45408,6.52274,-1.09385,35.1995,7,0,0,0
0,1405349305,353549,29.8514,20.0017,-49.2468,60.9625,-8.5848,-0.543424,3.55597,9.30801,1.7762,6.38374,-0.37518,35.2711,6,0,0,0
0,1405349306,354556,29.7605,20.2183,-49.3382,61.0633,-8.61047,-0.535199,3.51506,9.3157,2.03986,4.92745,-0.952097,35.2523,7,0,0,0
0,1405349307,355564,29.415,20.3293,-49.7698,61.2826,-8.59555,-0.534627,3.54712,9.31404,1.95803,5.5168,-2.71608,35.2716,5,0,0,0
0,1405349308,356566,29.7306,20.1292,-49.3732,61.0476,-8.57129,-0.548168,3.55281,9.29462,1.37606,5.20804,-0.741658,35.2009,6,0,0,0
0,1405349309,357569,29.7701,19.8804,-49.2436,60.8804,-8.5959,-0.538525,3.55551,9.31779,2.39642,6.04755,-1.16868,35.2425,5,0,0,0
0,1405349310,358573,29.798,20.3292,-49.2972,61.0853,-8.60004,-0.525779,3.52827,9.31053,0.770789,5.58881,-1.91222,35.2799,6,0,0,0
0,1405349311,359580,29.5735,20.378,-48.8623,60.6414,-8.58106,-0.508233,3.5842,9.3134,1.65275,6.45992,-1.57958,35.3096,7,0,0,0
0,1405349312,360581,29.8939,20.086,-49.3328,61.0804,-8.62111,-0.53536,3.50911,9.3233,0.984676,5.86195,-1.24454,35.3962,7,0,0,0
0,1405349313,361584,29.8815,20.1459,-48.9585,60.7922,-8.60881,-0.528843,3.4954,9.3064,2.49414,4.88126,-1.13476,35.3358,7,0,0,0
0,1405349314,362589,29.8879,20.245,-49.449,61.2237,-8.56764,-0.621602,3.5982,9.31332,3.60471,4.95238,-0.345454,35.4085,6,0,0,0
0,1405349315,363596,29.9869,20.4661,-49.0812,61.0495,-8.6007,-0.490276,3.53965,9.31352,2.13791,4.85354,-0.889088,35.3176,7,0,0,0
0,1405349316,364600,29.7862,20.3859,-49.1078,60.9457,-8.59971,-0.553062,3.55158,9.32065,0.990137,5.9728,-1.09062,35.3408,7,0,0,0
0,1405349317,365607,30.1304,20.1347,-49.2286,61.1286,-8.58401,-0.547944,3.52763,9.29675,0.675834,6.23578,-0.590982,35.4235,6,0,0,0
0,1405349318,366618,30.1246,19.8994,-49.0048,60.8683,-8.58966,-0.519813,3.55324,9.31011,3.14566,6.29418,-1.02839,35.4176,7,0,0,0
0,1405349319,367623,29.9052,19.9288,-49.4729,61.1477,-8.59499,-0.55108,3.55221,9.31642,1.40634,5.47398,-0.813573,35.311,7,0,0,0
0,1405349320,368629,29.8114,20.1931,-49.3627,61.0996,-8.59819,-0.523985,3.53946,9.31296,2.93088,4.98707,-1.76171,35.5084,6,0,0,0
0,1405349321,369640,29.7709,20.2609,-49.4752,61.1932,-8.61227,-0.534022,3.51486,9.31722,2.09092,5.42477,-1.06756,35.5128,6,0,0,0
0,1405349322,370650,29.6339,20.328,-49.312,61.0169,-8.60685,-0.546458,3.52943,9.31844,1.5868,6.87135,-0.684627,35.4957,7,0,0,0
0,1405349323,371657,29.8974,20.1537,-49.2941,61.0732,-8.5702,-0.493286,3.57396,9.29865,3.14122,5.85467,-1.01246,35.4732,6,0,0,0
0,1405349324,372662,29.8783,20.1691,-48.8565,60.7162,-8.62598,-0.624649,3.53497,9.34312,2.81548,5.25607,-1.15352,35.3946,7,0,0,0
0,1405349325,373663,30.1386,19.8586,-48.9052,60.7817,-8.5994,-0.524739,3.5493,9.31786,1.63322,5.91861,-1.2296,35.4176,6,0,0,0
0,1405349326,374669,30.0686,19.8101,-49.0333,60.8344,-8.61184,-0.509856,3.52809,9.32047,2.47375,5.01085,-0.772233,35.2818,6,0,0,0
0,1405349327,375675,29.8855,20.0813,-49.7001,61.3719,-8.57063,-0.473589,3.4973,9.26882,3.61483,4.26635,-0.498995,35.3471,6,0,0,0
0,1405349328,376676,29.9725,20.3085,-49.459,61.2942,-8.60758,-0.575905,3.48551,9.30434,1.76113,4.94468,-1.5668,35.3177,7,0,0,0
0,1405349329,377684,29.6655,20.4998,-49.3145,61.0917,-8.59693,-0.552065,3.54496,9.31551,3.62479,5.21017,-0.977302,35.291,6,0,0,0
0,1405349330,378693,29.7245,20.1942,-49.0269,60.7864,-8.60507,-0.562654,3.52121,9.31465,0.746748,5.75494,-1.57401,35.3607,7,0,0,0
0,1405349331,379700,29.67,20.2677,-49.1871,60.9136,-8.59929,-0.525299,3.53433,9.3121,1.06568,5.27823,-2.05393,35.4385,6,0,0,0
0,1405349332,380704,29.6664,20.2872,-49.4557,61.1354,-8.57697,-0.591899,3.62307,9.3296,0.817533,5.07599,-1.81808,35.4099,7,0,0,0
0,1405349333,381707,29.7865,20.2957,-49.1985,60.9889,-8.58148,-0.617255,3.59653,9.32512,0.74095,4.59118,-2.01483,35.5218,7,0,0,0
0,1405349334,382713,29.5541,20.3037,-48.9731,60.6964,-8.61385,-0.51136,3.47039,9.30073,1.52584,5.33835,-1.29513,35.5459,7,0,0,0
0,1405349335,383722,29.6336,20.3814,-49.423,61.1243,-8.59074,-0.552882,3.52769,9.30329,2.79678,4.93196,-1.53529,35.5147,7,0,0,0
0,1405349336,384726,29.901,20.3358,-49.1698,61.0351,-8.61241,-0.535553,3.52793,9.32238,3.09664,6.24373,-1.32541,35.6266,6,0,0,0
0,1405349337,385737,29.6485,20.1113,-49.4025,61.0254,-8.60237,-0.551601,3.5299,9.31479,3.2937,5.31798,-1.75242,35.6084,6,0,0,0
0,1405349338,386746,29.7428,20.1273,-49.2538,60.9564,-8.59408,-0.543108,3.515,9.30098,0.337816,6.08923,-1.12182,35.5459,7,0,0,0
0,1405349339,387753,30.2178,19.9565,-49.2602,61.1387,-8.57017,-0.516452,3.52353,9.28062,-0.085685,5.8324,-1.0772,35.6014,7,0,0,0
0,1405349340,388759,30.1074,20.1418,-49.3802,61.2418,-8.59655,-0.538097,3.53243,9.30958,2.89354,5.28387,-0.811021,35.6335,7,0,0,0
0,1405349341,389764,29.6956,20.4115,-49.0181,60.8377,-8.58696,-0.547384,3.54115,9.30458,1.71024,6.06264,-0.0324696,35.6624,7,0,0,0
0,1405349342,390772,29.7706,20.4669,-49.1863,61.0285,-8.60674,-0.594009,3.55141,9.32959,1.62516,5.92444,-2.49457,35.6009,7,0,0,0
0,1405349343,391779,29.8196,20.308,-49.3564,61.1366,-8.61622,-0.505851,3.48405,9.30773,1.53798,5.37268,-1.55564,35.5863,6,0,0,0
0,1405349344,392786,29.6437,20.3762,-49.1335,60.8937,-8.57396,-0.566415,3.51301,9.28304,1.457,5.81159,-0.113688,35.5728,7,0,0,0
0,1405349345,393787,29.6736,20.1174,-49.2009,60.8766,-8.57331,-0.643288,3.55379,9.30295,3.34879,4.92292,0.0306595,35.5779,7,0,0,0
0,1405349346,394792,29.968,20.0843,-49.3694,61.1457,-8.60135,-0.5459,3.5318,9.31423,0.00130483,6.03141,-1.29543,35.5251,7,0,0,0
0,1405349347,395800,29.7959,20.2568,-49.0065,60.8258,-8.60047,-0.488585,3.54828,9.3165,2.05959,5.32637,-1.35471,35.5563,7,0,0,0
0,1405349348,396808,30.0687,19.9294,-49.4921,61.2436,-8.60824,-0.569112,3.50789,9.31294,2.20183,5.37997,-1.15333,35.5683,7,0,0,0
0,1405349349,397812,29.7199,20.1866,-49.1311,60.8657,-8.58902,-0.562272,3.53793,9.30615,4.53631,5.14103,-1.272,35.5588,6,0,0,0
0,1405349350,398820,29.6922,19.724,-49.0596,60.6425,-8.5773,-0.539091,3.51312,9.28454,1.36426,4.48722,-1.38488,35.6788,6,0,0,0
0,1405349351,399825,29.821,20.2492,-49.1718,60.9687,-8.5854,-0.523981,3.54241,9.30228,1.0873,6.28211,-1.40378,35.6534,7,0,0,0
0,1405349352,400845,29.7089,20.1423,-49.1829,60.8876,-8.58594,-0.53752,3.5268,9.29761,2.20245,5.36648,-0.0472742,35.7,6,0,0,0
0,1405349353,401853,29.8588,20.4187,-49.116,60.9988,-8.60209,-0.552629,3.50688,9.30589,-0.0900501,5.63541,-0.997409,35.8193,5,0,0,0
0,1405349354,402854,30.0246,20.2242,-49.2443,61.1187,-8.61392,-0.525622,3.50742,9.31546,2.26149,6.13034,-1.74238,35.7271,7,0,0,0
0,1405349355,403862,29.7717,20.0834,-49.2864,60.9823,-8.59168,-0.530898,3.55674,9.31393,2.47172,5.62095,-1.66598,35.7651,6,0,0,0
0,1405349356,404867,29.7926,20.0927,-49.0056,60.7689,-8.56012,-0.575451,3.52526,9.27546,1.09269,4.13036,-0.546727,35.8325,6,0,0,0
0,1405349357,405876,29.8966,20.0149,-49.0696,60.8459,-8.59982,-0.559653,3.54935,9.3203,2.07409,5.02197,-0.346124,35.7836,6,0,0,0
0,1405349358,406881,29.7896,20.6341,-49.2598,61.1532,-8.58256,-0.575087,3.54019,9.30183,2.28902,5.72778,0.168262,35.8983,7,0,0,0
0,1405349359,407889,29.8849,20.1046,-49.1657,60.9473,-8.6076,-0.525617,3.50698,9.30946,0.135096,5.97009,-1.533,35.8341,6,0,0,0
0,1405349360,408898,29.4912,20.0621,-48.9593,60.5742,-8.59092,-0.546717,3.54504,9.30968,0.205545,6.15313,-1.68786,36.0375,6,0,0,0
0,1405349361,409903,29.7516,19.9249,-48.8129,60.538,-8.5865,-0.566548,3.54234,9.30575,2.75079,4.80493,0.476552,36.0331,6,0,0,0
0,1405349362,410906,29.743,20.5852,-49.2379,61.0964,-8.59566,-0.542402,3.52158,9.30489,0.89021,4.16478,-0.554463,36.0964,6,0,0,0
0,1405349363,411908,29.7832,20.212,-48.9331,60.7454,-8.59119,-0.545085,3.53194,9.30485,1.00989,5.47259,-1.20506,36.0901,7,0,0,0
0,1405349364,412916,29.8532,20.1162,-49.2295,60.987,-8.59076,-0.546462,3.54304,9.30876,1.57055,6.40667,-0.404989,36.1284,7,0,0,0
0,1405349365,413924,29.1107,19.9212,-48.8585,60.2614,-8.58778,-0.544468,3.52326,9.29837,2.43603,5.80043,-0.54424,36.1641,8,0,0,0
0,1405349366,414925,30.0708,19.807,-49.4258,61.1513,-8.59502,-0.547519,3.56176,9.31988,2.11151,5.35639,-1.69766,36.0092,6,0,0,0
0,1405349367,415933,29.8274,20.2659,-49.1607,60.9685,-8.5741,-0.530395,3.53797,9.29052,2.68398,5.55898,-2.60487,36.0979,6,0,0,0
0,1405349368,416942,29.9577,20.4259,-49.4821,61.3446,-8.59755,-0.546832,3.53124,9.31056,2.02192,6.2163,-0.312582,36.1829,6,0,0,0
0,1405349369,417950,29.4369,20.1414,-49.2956,60.8463,-8.59082,-0.540181,3.55608,9.31341,2.72823,6.34321,-0.586776,36.1665,6,0,0,0
0,1405349370,418953,29.6609,20.3675,-48.9255,60.7314,-8.62019,-0.547704,3.51542,9.32554,2.80032,6.33209,-2.05603,36.2251,8,0,0,0
0,1405349371,419961,29.8313,20.44,-49.0551,60.9434,-8.61181,-0.540332,3.56193,9.33502,2.66346,6.57836,-1.12009,36.2778,7,0,0,0
0,1405349372,420963,29.6804,20.5541,-49.5792,61.331,-8.60559,-0.539945,3.56652,9.33101,3.00193,6.15594,-1.06127,36.2117,6,0,0,0
0,1405349373,421970,29.9443,20.0487,-48.89,60.7358,-8.5875,-0.54042,3.54016,9.3043,1.74454,4.9565,-1.91332,35.9519,6,0,0,0
0,1405349374,422972,29.7874,20.138,-49.1656,60.9104,-8.58778,-0.546039,3.54019,9.3049,1.59813,4.89467,-1.28514,36.1888,6,0,0,0
0,1405349375,423973,29.8199,20.3855,-49.0951,60.9518,-8.58884,-0.546948,3.52241,9.29918,1.69351,5.18312,-0.66104,36.138,7,0,0,0
0,1405349376,424979,29.6518,20.0831,-49.218,60.8685,-8.57728,-0.547701,3.53868,9.29473,1.65487,5.68875,-1.18681,36.1571,7,0,0,0
0,1405349377,425986,30.1819,20.2811,-49.059,61.066,-8.60821,-0.546278,3.54283,9.32477,1.45307,5.50294,-1.48655,36.1839,6,0,0,0
0,1405349378,426993,29.6965,20.2292,-49.3512,61.0463,-8.60792,-0.546777,3.53193,9.3204,1.67407,6.07455,-1.67255,36.1982,7,0,0,0
0,1405349379,427996,29.9045,20.1982,-48.9649,60.826,-8.61173,-0.555784,3.53673,9.32626,2.2813,6.45362,-0.716617,36.1851,6,0,0,0
0,1405349380,428999,29.8619,20.1383,-49.1495,60.9341,-8.61041,-0.551644,3.54164,9.32667,2.47468,6.03772,-1.23859,36.1835,6,0,0,0
0,1405349382,430006,29.9294,20.2543,-49.189,61.0374,-8.62779,-0.532622,3.52063,9.33366,2.25843,5.18316,-1.9012,36.2787,6,0,0,0
0,1405349383,431007,29.6219,20.167,-48.661,60.4323,-8.60961,-0.544695,3.54706,9.32758,1.87579,5.52669,-0.857715,36.2288,7,0,0,0
0,1405349384,432014,29.9253,20.1799,-48.9828,60.8446,-8.58885,-0.551296,3.54431,9.30776,1.7243,5.99958,-2.05592,36.3024,6,0,0,0
0,1405349385,433017,29.4217,20.162,-49.1552,60.732,-8.59993,-0.541446,3.52597,9.31044,2.80001,6.52962,-1.96344,36.1517,6,0,0,0
0,1405349386,434019,29.7653,20.2521,-48.9686,60.7786,-8.59923,-0.539014,3.5,9.29985,0.314113,5.16046,-0.479515,36.1829,7,0,0,0
0,1405349387,435023,29.8213,20.1749,-49.1685,60.9416,-8.61147,-0.617717,3.53953,9.33098,0.869653,5.43247,-1.53717,36.1405,7,0,0,0
0,1405349388,436027,29.8739,20.219,-49.2247,61.0272,-8.60259,-0.54818,3.50656,9.30596,1.31076,6.13817,-0.474551,35.9916,3,0,0,0
0,1405349389,437028,29.9289,19.8895,-48.9861,60.7533,-8.58399,-0.565958,3.553,9.30747,2.97032,5.34102,-1.65037,35.9483,10,0,0,0
0,1405349390,438031,30.0341,20.1109,-48.9131,60.8193,-8.60949,-0.546743,3.5113,9.31405,2.25447,6.08864,-1.40165,35.9882,11,0,0,0
0,1405349391,439035,29.3661,20.5459,-49.1467,60.8268,-8.59405,-0.578813,3.53673,9.31135,1.92106,5.28184,-1.2055,36.0547,11,0,0,0
0,1405349392,440039,29.5721,19.9877,-49.3341,60.8923,-8.59997,-0.581765,3.53926,9.31795,1.38417,5.22342,-0.763619,35.9192,11,0,0,0
0,1405349393,441043,29.5086,20.4392,-49.0332,60.7682,-8.60605,-0.532611,3.5837,9.3376,0.447647,6.61088,-0.687793,35.9914,10,0,0,0
0,1405349394,442048,29.7549,19.9162,-48.9332,60.6339,-8.58538,-0.541114,3.55674,9.3087,1.7409,5.33741,-1.27703,36.0687,10,0,0,0
0,1405349395,443055,29.1873,19.7311,-48.3628,59.8346,-8.58688,-0.524168,3.5226,9.29613,2.96406,7.12832,-1.59525,36.0159,11,0,0,0
0,1405349396,444056,29.706,20.0449,-48.9386,60.6567,-8.58573,-0.52803,3.57286,9.31444,1.94806,6.36293,-1.07724,35.9431,10,0,0,0
0,1405349397,445057,29.8175,19.9988,-49.6203,61.2471,-8.59354,-0.556926,3.52013,9.30325,2.12378,5.69838,-1.82677,36.2113,9,0,0,0
0,1405349398,446062,29.7227,19.9986,-49.0879,60.7701,-8.61614,-0.548797,3.50476,9.31785,2.02455,6.04952,-1.63457,36.083,11,0,0,0
0,1405349399,447066,29.6011,20.0346,-49.1134,60.7432,-8.62826,-0.562363,3.55458,9.3487,1.69334,5.52902,-1.41688,36.2078,10,0,0,0
0,1405349400,448067,29.7475,19.8782,-49.1731,60.8116,-8.60217,-0.549412,3.53677,9.31708,1.75586,6.30124,-1.32122,36.229,10,0,0,0
0,1405349401,449070,29.675,20.263,-49.3369,61.0354,-8.61875,-0.555287,3.52203,9.32716,2.06815,5.73172,-2.41276,36.3024,11,0,0,0
0,1405349402,450076,29.8,20.0161,-49.0867,60.8127,-8.57075,-0.539847,3.54739,9.29156,2.25646,5.52336,0.153161,36.2729,10,0,0,0
0,1405349403,451078,29.7466,20.2305,-48.8764,60.6881,-8.61038,-0.53204,3.5327,9.32211,1.50865,5.99452,-0.666464,36.353,10,0,0,0
0,1405349404,452080,29.6747,20.2955,-49.1431,60.8896,-8.59083,-0.520202,3.51605,9.29707,1.72804,6.28896,-1.3041,36.3207,12,0,0,0
0,1405349405,453084,29.4962,20.2716,-49.2482,60.8798,-8.62999,-0.520898,3.56357,9.35132,1.48399,5.32283,-1.28157,36.2578,11,0,0,0
0,1405349406,454090,29.4637,20.1451,-49.187,60.7725,-8.61264,-0.54194,3.52308,9.32112,2.38817,5.27103,-1.96847,36.2309,11,0,0,0
0,1405349407,455093,29.5057,20.2505,-49.1566,60.8033,-8.6035,-0.522057,3.56208,9.32637,1.55638,5.79472,-0.648515,36.3506,12,0,0,0
0,1405349408,456094,29.5197,20.1742,-48.8221,60.5145,-8.61789,-0.562738,3.58907,9.35233,1.3253,6.22872,-1.52909,36.4034,10,0,0,0
0,1405349409,457095,29.5678,19.7803,-49.0717,60.6097,-8.58784,-0.532054,3.54485,9.30591,1.78266,5.40028,-1.4043,36.3507,10,0,0,0
0,1405349410,458101,29.6113,20.1676,-49.1051,60.7855,-8.58234,-0.536719,3.53266,9.29646,1.59832,5.93482,-1.30063,36.1995,11,0,0,0
0,1405349411,459103,29.718,19.9726,-48.9703,60.6643,-8.6139,-0.535915,3.54417,9.32993,1.87498,5.3968,-1.89002,36.2419,11,0,0,0
0,1405349412,460107,29.6917,20.126,-48.893,60.6398,-8.60189,-0.558457,3.50938,9.307,1.8608,6.11328,-1.75009,36.3369,11,0,0,0
0,1405349413,461109,29.7711,20.015,-48.6185,60.4209,-8.59946,-0.533279,3.53623,9.31343,2.06323,5.50882,-1.55571,36.2399,11,0,0,0
0,1405349414,462111,29.8862,20.2578,-48.9689,60.8401,-8.62011,-0.543747,3.50489,9.32128,1.76977,4.76525,-0.750459,36.2326,11,0,0,0
0,1405349415,463116,29.6793,20.5001,-49.5747,61.3088,-8.55925,-0.571037,3.54472,9.28181,2.0342,5.46761,-0.885105,36.2774,10,0,0,0
0,1405349416,464119,29.4182,20.4002,-48.8739,60.5827,-8.58412,-0.538215,3.52689,9.29601,1.905,5.58621,-0.513721,36.2417,11,0,0,0
0,1405349417,465120,29.6494,20.5417,-49.0226,60.8627,-8.59611,-0.589625,3.54663,9.31769,2.33439,6.00417,-1.8351,36.2202,11,0,0,0
0,1405349418,466125,29.6934,20.2514,-49.0883,60.8398,-8.58874,-0.532098,3.55849,9.31195,1.26048,5.66708,-3.22761,36.1705,11,0,0,0
0,1405349419,467131,29.3058,20.1332,-49.2869,60.7731,-8.62382,-0.542474,3.53129,9.33459,1.29569,6.48816,-0.601401,36.1955,11,0,0,0
0,1405349420,468135,29.6388,20.0762,-48.8026,60.5245,-8.6185,-0.533087,3.51011,9.32114,1.91258,5.01866,-1.59701,36.2149,10,0,0,0
0,1405349421,469141,29.6261,20.0894,-48.8562,60.5658,-8.60733,-0.514726,3.54125,9.32157,2.05995,5.58893,-0.974463,36.0928,11,0,0,0
0,1405349422,470144,29.7183,20.1303,-49.2727,60.9607,-8.58783,-0.535475,3.52961,9.30031,1.51744,6.31057,-0.923481,36.3588,10,0,0,0
0,1405349423,471147,29.7523,20.2903,-49.1133,60.9017,-8.59774,-0.542557,3.55118,9.31807,2.71865,6.51596,-1.93725,36.3838,12,0,0,0
0,1405349424,472151,29.6675,20.4359,-49.2181,60.9935,-8.60462,-0.535284,3.54641,9.32218,1.62452,4.45869,-1.13902,36.367,10,0,0,0
0,1405349425,473154,29.3548,20.2323,-49.0625,60.648,-8.58293,-0.526108,3.57822,9.31381,1.39325,5.47907,-2.66256,36.3135,10,0,0,0
0,1405349426,474156,29.6797,20.0601,-48.8723,60.5953,-8.64792,-0.517002,3.55271,9.36353,1.84339,6.83026,-0.0290039,36.2937,11,0,0,0
0,1405349427,475158,29.4834,20.7111,-49.3255,61.0837,-8.60413,-0.596316,3.58715,9.341,1.8901,5.96943,-1.66675,36.2288,10,0,0,0
0,1405349428,476162,29.5676,20.195,-48.9384,60.6387,-8.57049,-0.52153,3.58261,9.30378,1.58204,6.13052,-1.39684,36.3235,10,0,0,0
0,1405349429,477166,29.8344,20.3103,-49.2509,61.0594,-8.60046,-0.620719,3.53121,9.31787,2.1209,5.75176,-0.156724,36.2225,11,0,0,0
0,1405349430,478167,29.8807,20.1754,-49.0823,60.9014,-8.57692,-0.491441,3.58794,9.31012,1.63298,5.35873,-1.97375,36.3067,11,0,0,0
0,1405349431,479170,29.613,19.9937,-48.8672,60.5366,-8.58227,-0.523706,3.59238,9.31852,1.51452,4.88562,-0.875947,36.3073,11,0,0,0
0,1405349432,480175,29.6644,20.2799,-49.3198,61.0221,-8.60241,-0.518294,3.50011,9.30166,1.95489,6.68761,-1.25649,36.4408,11,0,0,0
0,1405349433,481179,29.3876,19.9382,-49.1114,60.6061,-8.60702,-0.523892,3.53614,9.31985,1.92196,5.08947,-0.723484,36.4691,11,0,0,0
0,1405349434,482181,29.5438,19.9199,-49.216,60.7606,-8.61017,-0.621872,3.55748,9.33688,1.83367,7.01484,-1.50112,36.4229,11,0,0,0
0,1405349435,483183,29.7386,20.2831,-48.9884,60.7919,-8.61673,-0.542207,3.51316,9.32118,2.99138,6.56864,-1.02221,36.4737,11,0,0,0
0,1405349436,484185,29.5169,20.179,-48.9428,60.6122,-8.62387,-0.536216,3.48424,9.31657,1.39302,4.99424,-1.49356,36.4304,11,0,0,0
0,1405349437,485186,30.0941,20.2824,-49.0351,61.0039,-8.61052,-0.532466,3.47664,9.30116,1.52415,6.1979,-1.97783,36.433,10,0,0,0
0,1405349438,486190,29.6016,19.9441,-49.3825,60.9316,-8.61357,-0.521116,3.54066,9.32746,1.00798,5.92186,-0.397658,36.5003,10,0,0,0
0,1405349439,487192,29.7821,20.0382,-48.9851,60.7293,-8.58367,-0.526282,3.55496,9.3056,2.24322,6.66084,-1.64206,36.5505,11,0,0,0
0,1405349440,488195,29.674,20.0943,-48.7302,60.4893,-8.58617,-0.534399,3.53048,9.29904,2.65504,6.41778,-0.948202,36.5374,11,0,0,0
0,1405349441,489202,29.7439,19.8354,-49.2332,60.8444,-8.62058,-0.533982,3.53293,9.33173,1.06929,5.82411,-0.9493,36.5738,11,0,0,0
0,1405349442,490207,29.4385,20.0492,-49.1171,60.672,-8.57749,-0.542651,3.52842,9.29073,1.26883,6.10407,-0.250419,36.5121,11,0,0,0
0,1405349443,491209,29.1655,20.3004,-49.0026,60.5309,-8.59507,-0.535554,3.53672,9.30969,2.02125,5.25555,-1.45658,36.5078,11,0,0,0
0,1405349444,492211,29.6083,20.4985,-49.2888,61.0428,-8.61038,-0.51768,3.51397,9.31422,1.42824,6.20839,-0.366426,36.4773,11,0,0,0
0,1405349445,493214,29.5118,20.2141,-49.0519,60.7095,-8.58606,-0.532837,3.51359,9.29245,1.76019,6.18302,-1.01357,36.2802,11,0,0,0
0,1405349446,494215,29.7574,20.3841,-48.9283,60.7864,-8.58791,-0.533412,3.55404,9.30956,1.49972,5.70979,-1.52446,36.3365,11,0,0,0
0,1405349447,495218,29.6213,19.7382,-49.1741,60.7051,-8.58674,-0.537135,3.53514,9.30149,2.24916,6.48912,-1.43384,36.2656,10,0,0,0
0,1405349448,496225,29.2466,20.0654,-48.841,60.3608,-8.60479,-0.531186,3.53589,9.31811,1.69133,4.87213,-1.59605,36.179,11,0,0,0
0,1405349449,497227,29.6248,20.1993,-49.1277,60.8207,-8.59915,-0.532518,3.52842,9.31014,1.59729,5.67043,-1.27139,36.2506,11,0,0,0
0,1405349450,498229,29.566,20.1017,-49.2004,60.8186,-8.60538,-0.539718,3.57736,9.33496,1.62237,5.92193,-2.262,36.1909,10,0,0,0
0,1405349451,499230,29.3277,19.8691,-48.9159,60.3959,-8.62293,-0.521441,3.53647,9.33453,2.25202,5.72232,-1.94085,36.1485,10,0,0,0
0,1405349452,500231,29.7325,19.8322,-49.0079,60.6557,-8.57877,-0.53223,3.5472,9.29845,2.66504,4.82407,-1.03244,36.183,11,0,0,0
0,1405349453,501233,29.9573,20.3052,-48.9392,60.867,-8.59727,-0.523204,3.55096,9.31644,2.08469,6.00732,-0.931245,36.2871,10,0,0,0
0,1405349454,502236,29.6443,20.0376,-48.5854,60.3393,-8.60007,-0.527956,3.51503,9.30567,0.809263,5.93511,-1.28124,36.4068,9,0,0,0
0,1405349455,503239,29.5535,20.2349,-48.8264,60.5548,-8.59594,-0.520481,3.49869,9.29527,1.50419,5.15772,0.16931,36.4328,11,0,0,0
0,1405349456,504240,29.5273,20.0471,-49.3216,60.88,-8.60666,-0.546615,3.5224,9.31562,2.30931,6.61298,-0.731345,36.4673,11,0,0,0
0,1405349457,505242,29.6044,20.0656,-48.8863,60.5716,-8.60109,-0.520886,3.53544,9.31394,2.26661,5.87362,-1.62243,36.4203,10,0,0,0
0,1405349458,506245,29.5437,19.8496,-48.9551,60.5263,-8.60496,-0.53775,3.52125,9.3131,2.92782,5.15921,-0.746089,36.3829,10,0,0,0
0,1405349459,507246,29.8023,20.2762,-48.8141,60.6805,-8.58231,-0.511622,3.51393,9.28793,1.88998,5.92491,-0.504414,36.4282,10,0,0,0
0,1405349460,508252,29.7663,20.4287,-49.3452,61.1417,-8.59538,-0.522696,3.51379,9.30056,0.912515,6.07269,-1.25634,36.4484,10,0,0,0
0,1405349461,509258,29.6853,20.2477,-49.1469,60.8819,-8.58986,-0.548134,3.48342,9.28549,2.17228,5.81824,-1.15162,36.3782,10,0,0,0
0,1405349462,510261,29.6239,19.9206,-49.0856,60.6944,-8.61384,-0.559455,3.54377,9.3311,2.42899,6.30618,-1.3459,36.4429,11,0,0,0
0,1405349463,511267,29.6146,19.8209,-48.8269,60.448,-8.60956,-0.538118,3.53329,9.32192,2.94208,5.58919,-0.0661123,36.5764,10,0,0,0
0,1405349464,512272,29.5343,20.2128,-48.8928,60.5916,-8.59161,-0.526999,3.52438,9.30133,1.02921,5.89849,-2.35115,36.5666,10,0,0,0
0,1405349465,513277,30.0416,20.3109,-49.4059,61.286,-8.60904,-0.541897,3.52357,9.31799,2.05874,4.7737,-1.20104,36.5445,11,0,0,0
0,1405349466,514281,29.6315,20.4125,-49.1401,60.9052,-8.62411,-0.518611,3.55426,9.34221,1.73425,6.19871,-1.78791,36.5051,10,0,0,0
0,1405349467,515286,29.7918,19.858,-48.7422,60.4789,-8.60556,-0.518846,3.50501,9.30645,0.936051,5.34379,-1.43979,36.6071,11,0,0,0
0,1405349468,516290,29.8989,20.136,-48.6817,60.5749,-8.58989,-0.543832,3.54266,9.30765,1.70777,5.61147,-1.45154,36.5934,11,0,0,0
0,1405349469,517291,29.6007,20.0958,-48.6968,60.427,-8.59838,-0.548737,3.53066,9.31121,2.81654,6.41393,-1.26936,36.4184,12,0,0,0
0,1405349470,518294,29.7263,19.9982,-48.7441,60.4944,-8.58911,-0.535779,3.54456,9.30719,1.65805,6.1489,-2.1022,36.504,11,0,0,0
0,1405349471,519296,29.5218,19.9236,-49.0474,60.6147,-8.59399,-0.54153,3.54607,9.3126,1.62465,5.7194,-0.479779,36.5225,10,0,0,0
0,1405349472,520302,29.6549,20.0727,-49.1737,60.8308,-8.60783,-0.521068,3.54383,9.32335,1.37062,6.53609,-1.66967,36.5765,10,0,0,0
0,1405349473,521304,29.4725,20.1142,-48.8441,60.4893,-8.57558,-0.536804,3.57919,9.30803,1.60036,4.87121,-2.11765,36.5192,12,0,0,0
0,1405349474,522308,29.3737,20.3488,-49.2692,60.8633,-8.61167,-0.556658,3.548,9.33054,1.77354,6.12,-1.61567,36.477,12,0,0,0
0,1405349475,523312,29.7945,20.406,-49.0568,60.9153,-8.61102,-0.525245,3.52989,9.32125,1.84136,5.40601,-1.39115,36.4878,10,0,0,0
0,1405349476,524316,29.721,20.262,-48.9226,60.7232,-8.6137,-0.542078,3.53978,9.32844,1.28127,5.46318,-1.60782,36.5643,10,0,0,0
0,1405349477,525322,29.6345,20.4108,-48.9652,60.7651,-8.59513,-0.531864,3.54232,9.31167,1.05092,6.27753,-1.72691,36.5563,11,0,0,0
0,1405349478,526323,29.6796,19.9282,-49.1517,60.7775,-8.60206,-0.523783,3.58269,9.33303,3.22075,6.03552,-1.50997,36.5104,11,0,0,0
0,1405349479,527324,29.8288,20.1731,-49.1431,60.9242,-8.58577,-0.513076,3.52355,9.29484,1.55841,5.14108,-0.856709,36.5721,11,0,0,0
0,1405349480,528325,29.2594,20.4154,-49.3052,60.8597,-8.6063,-0.496672,3.54602,9.32144,1.61428,4.87392,-0.959629,36.5463,11,0,0,0
0,1405349481,529327,29.7025,20.5796,-48.6355,60.5902,-8.5983,-0.531806,3.55631,9.31992,2.85163,5.5302,-0.572454,36.5265,10,0,0,0
0,1405349482,530329,29.8762,20.011,-48.7564,60.5823,-8.6185,-0.522917,3.50389,9.31822,2.09171,5.83634,-1.66944,36.4807,11,0,0,0
0,1405349483,531333,29.5981,20.3259,-48.4704,60.3205,-8.58302,-0.55971,3.54628,9.30363,2.62491,5.25891,-1.83648,36.3894,11,0,0,0
0,1405349484,532339,29.8713,19.8048,-49.069,60.7643,-8.59828,-0.533823,3.55057,9.31783,1.73885,5.84558,-0.89364,36.4394,10,0,0,0
0,1405349485,533340,29.5593,20.3555,-49.2293,60.9231,-8.59684,-0.483791,3.52069,9.30242,1.26372,5.10409,-1.432,36.4904,10,0,0,0
0,1405349486,534344,29.6726,20.1259,-48.4973,60.3118,-8.59301,-0.50797,3.50457,9.29408,1.44257,6.84528,-0.46707,36.4636,11,0,0,0
0,1405349487,535349,29.5688,19.916,-49.2001,60.7587,-8.59418,-0.564668,3.50757,9.29956,1.70475,6.72698,-1.76185,36.5272,11,0,0,0
0,1405349488,536361,29.5242,19.9583,-48.7142,60.358,-8.62462,-0.544773,3.54343,9.34006,1.48952,5.95837,-1.41201,36.4933,10,0,0,0
0,1405349489,537364,29.496,20.0881,-48.9614,60.5868,-8.61917,-0.528202,3.55551,9.33867,2.15232,4.77861,-1.20931,36.4871,11,0,0,0
0,1405349490,538369,30.0409,20.1461,-49.1972,61.063,-8.57135,-0.537683,3.54324,9.2904,3.03303,5.04148,-0.134583,36.5562,11,0,0,0
0,1405349491,539372,29.5896,19.999,-48.973,60.6124,-8.60926,-0.550785,3.55728,9.33151,1.9791,5.38493,-1.99156,36.5409,11,0,0,0
0,1405349492,540378,29.5282,20.1483,-48.905,60.5769,-8.59231,-0.528699,3.48692,9.28794,1.77066,5.70664,-1.75932,36.5674,11,0,0,0
0,1405349493,541387,29.5321,20.1706,-48.9001,60.5823,-8.61075,-0.535533,3.53476,9.32343,1.56426,5.29321,-1.81161,36.5918,11,0,0,0
0,1405349494,542389,29.6566,19.8508,-49.0881,60.6894,-8.59426,-0.520164,3.53343,9.30683,2.17363,5.21056,-1.67561,36.4453,10,0,0,0
0,1405349495,543393,29.5859,20.0642,-48.9849,60.6417,-8.57916,-0.527185,3.5224,9.28909,1.08844,5.90551,-1.0795,36.5682,10,0,0,0
0,1405349496,544400,29.7591,19.9225,-49.318,60.949,-8.59615,-0.538342,3.55048,9.31609,2.06403,5.0888,-2.26339,36.6579,11,0,0,0
0,1405349497,545404,29.4465,20.1495,-48.9805,60.5986,-8.60185,-0.531628,3.55324,9.32201,1.98797,5.61214,-2.05456,36.6895,11,0,0,0
0,1405349498,546405,29.7192,20.2144,-49.1448,60.8856,-8.59063,-0.544399,3.56209,9.31578,1.94727,6.0862,-1.11012,36.7262,10,0,0,0
0,1405349499,547408,29.4472,20.274,-49.206,60.8227,-8.60307,-0.520915,3.53514,9.31565,1.8756,6.00994,-0.270233,36.7327,11,0,0,0
0,1405349500,548409,29.6483,20.0687,-49.0161,60.6989,-8.59108,-0.541327,3.53354,9.30514,1.82576,6.19081,-0.670935,36.7634,10,0,0,0
0,1405349501,549411,29.5716,20.3508,-48.9866,60.7315,-8.61202,-0.536869,3.49403,9.30932,2.36293,5.52547,-0.113431,36.6879,10,0,0,0
0,1405349502,550417,29.7234,20.1306,-48.9827,60.7291,-8.61656,-0.513085,3.54465,9.33128,1.74458,6.97507,-0.153208,36.6317,10,0,0,0
0,1405349503,551420,29.4867,20.4014,-48.6604,60.4443,-8.60595,-0.521887,3.53612,9.31874,1.55628,6.45108,-1.86903,36.8451,11,0,0,0
0,1405349504,552424,29.6428,20.089,-48.7595,60.4959,-8.59932,-0.542234,3.51452,9.3056,1.21974,6.77791,-0.450704,36.8706,11,0,0,0
0,1405349505,553429,29.3133,20.0673,-48.4066,60.0431,-8.60182,-0.530288,3.52132,9.30979,1.66639,5.7753,-1.81538,36.7574,10,0,0,0
0,1405349506,554433,29.6674,20.1515,-49.167,60.8574,-8.5948,-0.525277,3.56934,9.32131,1.87269,6.55768,-0.842562,36.731,10,0,0,0
0,1405349507,555439,29.4129,20.2252,-49.1842,60.7722,-8.57802,-0.551359,3.52614,9.29086,1.71002,5.96444,-1.66566,36.8853,10,0,0,0
0,1405349508,556443,29.792,19.9762,-48.8923,60.6388,-8.58476,-0.52803,3.51451,9.29132,1.58009,4.88711,-1.18441,36.8816,11,0,0,0
0,1405349509,557446,29.5889,19.9988,-48.9933,60.6284,-8.59924,-0.545243,3.53292,9.31267,2.08492,6.09605,-1.65977,36.9457,10,0,0,0
0,1405349510,558451,29.7283,19.9666,-49.1475,60.8105,-8.59562,-0.533752,3.55353,9.3165,2.79259,6.94318,-0.98401,36.8172,11,0,0,0
0,1405349511,559455,29.7037,19.8879,-49.0018,60.6549,-8.58823,-0.552289,3.52102,9.2984,2.26088,6.65529,-2.08632,36.9637,10,0,0,0
0,1405349512,560457,29.2921,20.2932,-49.1,60.6684,-8.5789,-0.544081,3.5411,9.29693,2.24802,5.72982,-1.27003,36.8386,11,0,0,0
0,1405349513,561461,29.5679,20.5271,-49.3033,61.0445,-8.59328,-0.516146,3.53124,9.30486,2.07572,5.24007,-0.98413,36.9296,10,0,0,0
0,1405349514,562462,29.8341,19.7516,-49.0787,60.7364,-8.58319,-0.553727,3.50884,9.28923,1.66787,5.23122,-1.45157,36.9223,10,0,0,0
0,1405349515,563467,29.6731,20.0971,-49.0422,60.7415,-8.61215,-0.526014,3.54998,9.32996,1.20797,5.43872,-1.13345,36.9321,10,0,0,0
0,1405349516,564474,29.7745,20.3228,-49.0558,60.877,-8.58252,-0.522498,3.56959,9.30992,2.17107,5.49466,-1.80628,36.9581,10,0,0,0
0,1405349517,565475,29.6167,20.259,-48.6406,60.4441,-8.58225,-0.507599,3.51642,9.28859,2.41541,6.55953,-1.10281,36.9645,11,0,0,0
0,1405349518,566481,29.5492,20.0885,-48.4678,60.2148,-8.56331,-0.513302,3.57747,9.29473,1.03292,5.51283,-1.64736,36.9257,10,0,0,0
0,1405349519,567485,29.3941,20.3643,-48.982,60.6461,-8.59527,-0.544142,3.54711,9.31433,2.61125,5.90962,-1.32713,37.0301,10,0,0,0
0,1405349520,568489,29.7013,20.1372,-48.7588,60.54,-8.5753,-0.601869,3.54635,9.29917,1.96009,5.58744,-1.98243,36.9784,10,0,0,0
0,1405349521,569490,29.6126,20.12,-48.9024,60.6067,-8.58345,-0.535965,3.49425,9.28292,2.44603,5.55572,-1.62958,36.929,10,0,0,0
0,1405349522,570492,29.7987,20.3511,-49.0277,60.8756,-8.59425,-0.550951,3.4914,9.29272,1.13551,4.92321,-2.27633,36.9372,11,0,0,0
0,1405349523,571496,29.7279,19.8147,-48.5333,60.2648,-8.60924,-0.476819,3.54427,9.32246,1.64041,6.02458,-0.531779,37.1035,9,0,0,0
0,1405349524,572501,29.5377,20.1298,-48.9635,60.6227,-8.62285,-0.531019,3.53754,9.3354,2.26665,6.01561,-0.644847,37.0349,10,0,0,0
0,1405349525,573502,29.6039,19.9256,-48.8521,60.4975,-8.60638,-0.552889,3.5561,9.32852,2.15546,5.83144,-1.25701,37.056,10,0,0,0
0,1405349526,574507,29.8472,20.1619,-48.9697,60.7897,-8.58673,-0.544425,3.53051,9.30015,0.863333,5.99883,-2.38138,36.9986,9,0,0,0
0,1405349527,575511,29.3654,20.1592,-49.1374,60.6894,-8.58378,-0.546575,3.59454,9.32206,2.31149,5.74293,-1.14091,36.9815,9,0,0,0
0,1405349528,576515,29.3811,20.0019,-49.0405,60.5664,-8.58581,-0.558584,3.51053,9.29258,2.33924,5.29391,-0.490443,37.1048,11,0,0,0
0,1405349529,577518,29.4907,19.9334,-49.0932,60.6398,-8.61125,-0.543245,3.52168,9.31939,2.6681,6.12795,-1.93806,36.9735,10,0,0,0
0,1405349530,578522,29.6334,20.0894,-48.6401,60.3952,-8.57823,-0.529652,3.52841,9.29066,2.44578,5.74173,-1.20301,37.0405,10,0,0,0
0,1405349531,579524,29.7113,19.9099,-48.8586,60.5502,-8.57831,-0.548592,3.54907,9.29969,1.2798,6.57162,-0.463745,36.9913,10,0,0,0
0,1405349532,580527,29.3949,19.9726,-49.3393,60.8057,-8.61119,-0.541549,3.5296,9.32223,2.59525,5.62002,-0.909831,37.0331,10,0,0,0
0,1405349533,581529,30.0094,20.3011,-49.0923,61.0144,-8.5931,-0.52721,3.50528,9.2955,2.38547,5.48126,-1.50212,37.1814,11,0,0,0
0,1405349534,582549,29.6108,20.142,-49.5208,61.1131,-8.59254,-0.553379,3.55951,9.31709,2.03906,5.62836,-0.955473,37.2248,4,0,0,0
0,1405349535,583556,29.4845,20.0973,-49.1028,60.6986,-8.5942,-0.553121,3.50982,9.29973,2.67637,5.63461,-1.16118,37.2648,7,0,0,0
0,1405349536,584562,29.7935,20.2047,-49.3187,61.0592,-8.60905,-0.545373,3.5173,9.31582,0.786327,6.61561,-1.54116,37.2133,7,0,0,0
0,1405349537,585564,29.7219,20.2927,-49.1008,60.8775,-8.58959,-0.574614,3.58196,9.32425,1.8868,7.43048,-1.10566,37.3979,7,0,0,0
0,1405349538,586566,29.7093,20.1062,-48.7688,60.5417,-8.59719,-0.53349,3.55272,9.31762,0.503868,5.98189,-1.62711,37.2272,7,0,0,0
0,1405349539,587573,29.7028,20.1285,-49.099,60.8122,-8.5817,-0.516169,3.53616,9.29604,3.56014,5.14706,-2.21802,37.3936,6,0,0,0
0,1405349540,588580,29.5169,20.0551,-48.7559,60.4201,-8.59619,-0.538206,3.5464,9.31457,2.41456,5.28121,-2.12986,37.4036,6,0,0,0
0,1405349541,589588,29.5812,20.1711,-48.8871,60.596,-8.59776,-0.545067,3.56644,9.32406,1.68812,5.90166,-2.09062,37.4319,7,0,0,0
0,1405349542,590598,29.4649,20.207,-48.9538,60.6051,-8.60419,-0.543724,3.52597,9.31451,2.81665,5.14144,-1.74035,37.2143,6,0,0,0
0,1405349543,591604,29.6309,20.0374,-48.8297,60.5295,-8.58941,-0.532447,3.52136,9.29846,0.608059,5.82143,-1.33001,37.356,7,0,0,0
0,1405349544,592621,29.6921,19.9215,-48.7174,60.4308,-8.59654,-0.546381,3.5428,9.31399,0.191523,5.82964,-1.77834,37.5424,7,0,0,0
0,1405349545,593622,29.3992,19.8874,-48.8616,60.3927,-8.59857,-0.546075,3.52988,9.31094,0.522978,6.80497,-1.31104,37.3246,6,0,0,0
0,1405349546,594624,29.8285,20.0086,-48.3474,60.2292,-8.60411,-0.513276,3.55559,9.32397,2.70645,6.3885,-1.34572,37.3791,6,0,0,0
0,1405349547,595636,29.4121,19.7392,-49.0449,60.4989,-8.5961,-0.538397,3.56702,9.32236,2.36572,7.43117,-1.51346,37.2899,6,0,0,0
0,1405349548,596653,29.624,20.0281,-49.0422,60.6947,-8.59315,-0.548404,3.53458,9.30786,1.76875,6.09195,0.0788357,37.244,7,0,0,0
0,1405349549,597662,29.6145,20.4827,-49.0525,60.8499,-8.6095,-0.527279,3.54113,9.32422,1.23136,5.51394,-0.816891,37.3245,7,0,0,0
0,1405349550,598667,29.7386,20.2828,-49.0735,60.8604,-8.57955,-0.556716,3.53398,9.29557,2.63581,6.21161,-1.51137,37.2736,7,0,0,0
0,1405349551,599670,29.9157,19.7939,-48.9842,60.714,-8.59432,-0.563984,3.53657,9.31062,2.0793,4.71652,-2.23026,37.2125,8,0,0,0
0,1405349552,600671,29.8082,20.2103,-49.1459,60.9287,-8.59245,-0.52974,3.56163,9.31644,0.25735,6.54838,-0.721488,37.1423,6,0,0,0
0,1405349553,601673,29.7988,20.1837,-48.9997,60.7974,-8.6044,-0.534945,3.53759,9.31861,1.77247,5.53565,-0.731401,37.2107,6,0,0,0
0,1405349554,602679,29.6442,20.3223,-48.7706,60.5834,-8.62087,-0.533044,3.55083,9.33874,2.94482,5.25591,-1.18445,37.4057,7,0,0,0
0,1405349555,603681,29.7635,20.024,-48.9332,60.6736,-8.60092,-0.549732,3.55948,9.32459,0.948077,5.4482,-1.65047,37.4001,7,0,0,0
0,1405349556,604693,29.6667,20.0246,-49.2009,60.8426,-8.58144,-0.531419,3.53459,9.29607,2.65103,6.63755,-1.40769,37.3147,7,0,0,0
0,1405349557,605699,29.6851,20.0406,-48.7707,60.5096,-8.59637,-0.52391,3.54206,9.31227,1.48596,6.2187,-1.60494,37.351,7,0,0,0
0,1405349558,606701,29.4654,20.1417,-48.8587,60.5068,-8.59883,-0.536098,3.5423,9.31532,0.91724,5.70343,-1.92512,37.2481,6,0,0,0
0,1405349559,607703,29.523,19.972,-49.0314,60.6182,-8.59877,-0.557579,3.55437,9.32112,0.910112,6.6771,-1.82061,37.4009,6,0,0,0
0,1405349560,608710,29.7728,20.2133,-49.0711,60.8521,-8.57914,-0.527469,3.52327,9.28942,1.08586,6.01742,-1.43543,37.3355,7,0,0,0
0,1405349561,609716,29.4202,20.0165,-49.1094,60.6461,-8.5919,-0.531285,3.53941,9.30755,1.75688,6.18929,-1.2524,37.3985,8,0,0,0
0,1405349562,610727,30.0464,20.189,-49.3357,61.1914,-8.59883,-0.539215,3.50246,9.30043,2.21113,5.90349,-0.843115,37.423,6,0,0,0
0,1405349563,611728,29.5655,20.0385,-48.927,60.5764,-8.58635,-0.550197,3.53511,9.30189,3.03177,5.99661,-0.546195,37.3587,7,0,0,0
0,1405349564,612729,29.6464,20.0576,-48.9273,60.6226,-8.59905,-0.535862,3.51057,9.30349,2.00492,5.56227,-1.55337,37.3293,6,0,0,0
0,1405349565,613736,29.4003,20.2461,-48.9045,60.5469,-8.59171,-0.525812,3.54101,9.30767,3.02202,6.32696,-1.29468,37.387,7,0,0,0
0,1405349566,614744,29.8061,19.9783,-49.0387,60.7646,-8.57126,-0.558331,3.53451,9.28822,1.00663,7.21742,-0.878831,37.2828,7,0,0,0
0,1405349567,615750,29.608,20.1913,-48.9332,60.6529,-8.60471,-0.542086,3.55348,9.32534,1.91401,6.61584,-1.52272,37.482,7,0,0,0
0,1405349568,616754,29.7034,20.0753,-48.6589,60.44,-8.59125,-0.522486,3.53299,9.30401,0.379829,5.79334,-2.24059,37.5879,7,0,0,0
0,1405349569,617759,29.7024,20.1593,-48.6377,60.4504,-8.62404,-0.537741,3.56147,9.34597,0.943967,7.14251,-1.05224,37.4051,7,0,0,0
0,1405349570,618769,29.7376,20.2198,-48.8218,60.636,-8.61563,-0.54523,3.54276,9.33153,1.23012,5.81495,-1.87006,37.5209,7,0,0,0
0,1405349571,619770,29.5573,20.1314,-48.8121,60.5105,-8.5995,-0.530546,3.53238,9.31185,2.51093,6.41773,-1.641,37.2598,6,0,0,0
0,1405349572,620771,29.9842,20.1612,-49.3531,61.1658,-8.60023,-0.539353,3.53402,9.31365,2.15381,4.83835,-0.563224,37.4368,7,0,0,0
0,1405349573,621791,29.781,20.3631,-48.9376,60.7984,-8.59783,-0.539762,3.5289,9.30952,2.30179,6.21508,-0.394619,37.4267,7,0,0,0
0,1405349574,622801,29.6184,19.9926,-49.0565,60.6918,-8.58943,-0.546041,3.51896,9.29836,1.82969,6.55497,-1.64305,37.4026,7,0,0,0
0,1405349575,623809,29.9161,20.1339,-49.0624,60.8889,-8.60519,-0.541916,3.5327,9.31788,3.12473,5.93148,-0.874063,37.4044,6,0,0,0
0,1405349576,624815,29.889,20.2123,-48.8422,60.7244,-8.59097,-0.553696,3.55183,9.31273,1.97933,6.77231,-0.842048,37.3948,6,0,0,0
0,1405349577,625835,29.7679,20.0363,-48.8369,60.6022,-8.59564,-0.526487,3.51798,9.3026,0.819441,5.13395,-0.98071,37.5236,6,0,0,0
0,1405349578,626838,29.8336,20.3077,-49.1595,60.9845,-8.59396,-0.552522,3.5431,9.31209,0.308163,5.72885,-1.68472,37.4664,6,0,0,0
0,1405349579,627847,29.6907,20.0544,-48.6785,60.4426,-8.60256,-0.531413,3.54204,9.3184,1.36767,5.96889,-1.4783,37.3903,6,0,0,0
0,1405349580,628851,29.6502,20.3847,-48.9616,60.7611,-8.61364,-0.545061,3.55247,9.33338,1.28119,6.66446,-0.597248,37.378,6,0,0,0
0,1405349581,629857,29.7796,20.0392,-48.9491,60.6993,-8.58933,-0.528331,3.5302,9.30151,2.92329,4.85334,-0.58336,37.3966,7,0,0,0
0,1405349582,630860,29.6793,20.356,-48.9935,60.7914,-8.60203,-0.535317,3.53968,9.31724,2.67179,5.90373,-1.81514,37.4308,6,0,0,0
0,1405349583,631865,29.8979,20.1476,-49.1197,60.9307,-8.59581,-0.538492,3.56154,9.32001,1.36066,5.08377,-0.92238,37.4262,6,0,0,0
0,1405349584,632871,29.7709,20.185,-48.8541,60.6669,-8.59794,-0.542138,3.52011,9.30643,2.4329,6.50176,-1.57353,37.3593,6,0,0,0
0,1405349585,633877,29.7951,20.2396,-49.2354,61.0042,-8.59415,-0.502604,3.55854,9.31532,2.62842,6.37579,-1.27979,37.3109,6,0,0,0
0,1405349586,634883,29.7822,20.2802,-49.0324,60.8477,-8.58911,-0.542427,3.55792,9.31267,0.00697893,5.87927,-1.82316,37.4477,6,0,0,0
0,1405349587,635885,29.9632,20.0192,-48.5941,60.4975,-8.5814,-0.537261,3.5292,9.29432,0.496469,5.31467,-1.45979,37.3286,7,0,0,0
0,1405349588,636888,29.7394,20.0483,-49.0598,60.7719,-8.58448,-0.564921,3.52189,9.29603,3.66317,6.41258,-1.89718,37.4614,6,0,0,0
0,1405349589,637892,29.6161,20.2965,-48.9311,60.6903,-8.60707,-0.544391,3.541,9.32292,2.18688,5.05868,-2.06295,37.4242,7,0,0,0
0,1405349590,638901,29.6819,20.3515,-49.118,60.8915,-8.60271,-0.573767,3.55802,9.32713,-0.832727,6.06914,-1.8668,37.3904,7,0,0,0
0,1405349591,639907,29.5647,20.376,-49.0046,60.7511,-8.61744,-0.517628,3.5328,9.32785,0.931371,6.61805,-1.66087,37.3246,7,0,0,0
0,1405349592,640910,29.8269,20.1284,-48.8226,60.6501,-8.60956,-0.535108,3.54997,9.32809,2.15567,6.31584,-0.910633,37.289,7,0,0,0
0,1405349593,641913,29.3762,19.9152,-49.2646,60.7171,-8.61658,-0.526813,3.52545,9.3248,2.66758,4.59353,-0.979751,37.2979,6,0,0,0
0,1405349594,642917,29.7874,20.146,-49.2573,60.9871,-8.60116,-0.561299,3.53161,9.3149,2.60343,6.11266,-1.43976,37.0958,6,0,0,0
0,1405349595,643918,30.0343,20.0551,-48.9475,60.8287,-8.60998,-0.526342,3.57116,9.33606,2.09422,5.85254,-0.784063,37.128,6,0,0,0
0,1405349596,644919,29.6484,20.2245,-48.9925,60.7316,-8.61458,-0.539865,3.53126,9.32589,0.489587,5.19945,0.126891,37.0952,7,0,0,0
0,1405349597,645922,29.528,20.1032,-48.9034,60.5606,-8.61065,-0.53176,3.53146,9.32187,-0.163267,4.94939,-1.90308,37.119,7,0,0,0
0,1405349598,646930,29.5904,19.7409,-48.7491,60.3471,-8.61889,-0.525925,3.55065,9.33644,0.9779,6.5119,-1.15547,37.1816,6,0,0,0
0,1405349599,647937,29.7272,20.4186,-49.2283,61.025,-8.60545,-0.544327,3.55148,9.3254,2.46828,4.87413,-1.41043,37.1628,7,0,0,0
0,1405349600,648942,29.3336,20.1233,-49.2432,60.7478,-8.60744,-0.550565,3.51669,9.31441,3.12908,5.93978,-0.638272,37.3047,6,0,0,0
0,1405349601,649951,29.6636,20.3248,-49.1345,60.887,-8.60286,-0.544471,3.50918,9.30698,0.380264,6.70362,-1.24693,37.307,7,0,0,0
0,1405349602,650962,29.6664,20.2492,-49.2537,60.9595,-8.58792,-0.537941,3.55779,9.31126,3.0289,5.71293,-1.0677,37.2232,7,0,0,0
0,1405349603,651972,29.5956,20.352,-49.0933,60.8297,-8.5871,-0.533048,3.5388,9.30298,2.12865,6.97008,-1.06481,37.3216,7,0,0,0
0,1405349604,652977,29.5786,20.316,-49.0254,60.7546,-8.60058,-0.542647,3.54003,9.31645,1.87557,5.82982,-0.389366,37.3712,7,0,0,0
0,1405349605,653979,29.738,20.0019,-49.3037,60.9531,-8.60082,-0.536578,3.57638,9.33019,-0.291968,5.83258,-1.57048,37.3936,6,0,0,0
0,1405349606,654990,29.6429,20.5075,-49.1432,60.9452,-8.60508,-0.534937,3.55475,9.32576,2.75455,6.76995,-0.451437,37.5302,7,0,0,0
0,1405349607,655998,29.697,19.9404,-49.1677,60.8029,-8.60745,-0.539453,3.56482,9.33205,1.36932,5.78176,-0.990578,37.5623,7,0,0,0
0,1405349609,657007,29.5752,20.2786,-48.9707,60.6963,-8.58726,-0.529769,3.56042,9.31119,3.61486,5.82824,-2.35179,37.5972,6,0,0,0
0,1405349610,658010,29.7498,19.8988,-49.2014,60.8424,-8.6022,-0.533331,3.54602,9.31968,2.29994,5.89208,-0.829301,37.5146,6,0,0,0
0,1405349611,659016,29.6511,20.4078,-49.2075,60.9676,-8.59216,-0.53743,3.5353,9.30658,4.16199,6.65656,-0.110513,37.5105,7,0,0,0
0,1405349612,660021,29.9028,19.984,-48.8564,60.667,-8.60394,-0.565822,3.55209,9.32552,1.34213,5.52197,-2.49895,37.4568,7,0,0,0
0,1405349613,661023,29.7672,19.9312,-49.1151,60.7917,-8.59165,-0.520116,3.5524,9.31164,3.02364,5.15686,-0.879959,37.5457,7,0,0,0
0,1405349614,662033,29.9067,19.7152,-49.126,60.7985,-8.60784,-0.535129,3.53296,9.32004,-0.010175,6.77999,-1.24033,37.5295,6,0,0,0
0,1405349615,663037,29.7297,20.0086,-49.2081,60.8739,-8.61008,-0.535117,3.51803,9.31646,1.4701,6.30314,-1.09171,37.6056,6,0,0,0
0,1405349616,664043,29.543,20.2876,-49.3298,60.9738,-8.60382,-0.509301,3.52079,9.31027,2.69777,6.19536,-0.915349,37.5004,7,0,0,0
0,1405349617,665046,29.5738,19.8505,-49.0304,60.6022,-8.59602,-0.525876,3.57372,9.32414,0.64817,6.85965,-1.13286,37.5418,6,0,0,0
0,1405349618,666051,29.782,20.356,-48.9152,60.7785,-8.59082,-0.532807,3.55061,9.3109,1.85868,6.81971,-2.33936,37.5719,7,0,0,0
0,1405349619,667060,29.6053,20.1785,-49.0154,60.7137,-8.58706,-0.557954,3.55593,9.31093,1.48871,5.36258,-0.969766,37.4542,7,0,0,0
0,1405349620,668063,29.9412,19.8481,-49.0949,60.8337,-8.59898,-0.54556,3.49961,9.29986,0.556331,6.53204,-1.42961,37.4288,6,0,0,0
0,1405349621,669070,29.6347,20.3109,-49.0458,60.7967,-8.6007,-0.551491,3.52733,9.31226,3.5998,5.80048,-1.7588,37.4463,7,0,0,0
0,1405349622,670072,29.7044,19.8563,-49.0795,60.7077,-8.59738,-0.548315,3.53078,9.31031,1.06212,5.14659,0.126787,37.4814,6,0,0,0
0,1405349623,671079,29.4272,20.2971,-48.7954,60.4891,-8.60303,-0.541306,3.5209,9.31138,2.6083,6.4677,-1.98292,37.4873,6,0,0,0
0,1405349624,672084,29.505,20.2893,-49.0098,60.6973,-8.59787,-0.542597,3.50596,9.30105,2.51235,5.3659,-1.14221,37.4741,4,0,0,0
0,1405349625,673086,29.7468,20.0459,-48.8914,60.6389,-8.60293,-0.542419,3.55845,9.32562,0.635192,5.40773,-2.36164,37.5314,6,0,0,0
0,1405349626,674089,29.685,20.1877,-48.9892,60.7345,-8.5995,-0.542566,3.51813,9.30715,2.06861,5.87964,-1.41903,37.4957,7,0,0,0
0,1405349627,675096,29.8663,19.8111,-48.9427,60.6618,-8.59227,-0.559224,3.52443,9.30384,1.08435,5.83347,-0.814684,37.4576,6,0,0,0
0,1405349628,676100,29.8274,19.8258,-49.0484,60.7329,-8.61619,-0.543784,3.53294,9.32824,3.2043,5.64446,-1.1782,37.5056,7,0,0,0
0,1405349629,677107,29.9126,20.1803,-48.9369,60.8015,-8.61098,-0.551728,3.5264,9.32142,2.35433,6.20417,-1.34902,37.4763,6,0,0,0
0,1405349630,678109,29.6566,20.0323,-49.0642,60.7298,-8.59895,-0.547856,3.53545,9.31351,2.66677,6.49646,-0.685093,37.6168,7,0,0,0
0,1405349631,679115,29.8586,20.0589,-49.0114,60.7948,-8.59207,-0.543413,3.52104,9.30144,2.73782,5.83547,-1.09116,37.5915,6,0,0,0
0,1405349632,680124,29.5847,20.5125,-49.2938,61.0401,-8.58465,-0.538139,3.53597,9.29994,1.50493,6.18807,-1.43224,37.5792,6,0,0,0
0,1405349633,681129,29.5863,20.0612,-48.9436,60.6076,-8.59229,-0.539871,3.52666,9.30356,-0.0411909,5.71669,-1.34082,37.5162,7,0,0,0
0,1405349634,682132,29.8279,19.9886,-49.057,60.7934,-8.59486,-0.548657,3.54217,9.31234,1.35754,6.28197,-1.77268,37.6142,6,0,0,0
0,1405349635,683139,29.7471,20.3033,-49.0481,60.8509,-8.59362,-0.537817,3.57535,9.32323,0.563581,6.29944,-1.86797,37.5831,7,0,0,0
0,1405349636,684143,29.9767,20.0945,-48.7742,60.6738,-8.61093,-0.539026,3.51662,9.31693,0.904829,5.88239,-1.45968,37.7213,7,0,0,0
0,1405349637,685152,29.6916,20.1829,-49.0729,60.8037,-8.59398,-0.537199,3.54918,9.31353,-0.241086,5.57275,-1.71907,37.6341,7,0,0,0
0,1405349638,686166,29.8485,20.087,-48.8327,60.6552,-8.6008,-0.550397,3.53122,9.31376,0.788903,5.00412,-1.38183,37.7089,6,0,0,0
0,1405349639,687167,29.435,19.8005,-48.9497,60.4529,-8.60662,-0.550174,3.53524,9.32065,1.97425,6.5502,-1.05953,37.7107,6,0,0,0
0,1405349640,688173,29.6694,20.2589,-48.7516,60.5592,-8.57431,-0.549916,3.53096,9.28918,1.92138,6.39633,-0.968968,37.6895,7,0,0,0
0,1405349641,689181,29.6684,19.9788,-48.7641,60.4757,-8.5953,-0.53804,3.54306,9.31246,3.2904,5.8358,-1.89365,37.7315,6,0,0,0
0,1405349642,690183,29.6126,19.8464,-48.9596,60.5626,-8.6026,-0.536007,3.52862,9.3136,2.06881,6.08273,-0.939534,37.7959,7,0,0,0
0,1405349643,691185,29.6022,20.1615,-48.729,60.4755,-8.60407,-0.547076,3.55396,9.32523,1.66201,5.49363,-1.23299,37.6493,7,0,0,0
0,1405349644,692191,29.4946,20.192,-49.0449,60.6881,-8.60062,-0.557111,3.55391,9.32262,1.6405,5.56932,-1.74867,37.7841,7,0,0,0
0,1405349645,693198,29.898,20.1906,-48.8179,60.702,-8.59438,-0.527141,3.5328,9.30709,3.55624,6.83413,-0.846792,37.9049,6,0,0,0
0,1405349646,694205,29.5532,20.2113,-49.0899,60.7594,-8.58768,-0.554125,3.53801,9.30445,2.54864,7.88826,-0.750503,37.8373,6,0,0,0
0,1405349647,695209,29.4072,20.1798,-49.1074,60.6923,-8.58692,-0.538808,3.55087,9.30775,1.7603,6.4757,-1.89538,37.8303,7,0,0,0
0,1405349648,696212,29.4753,19.7598,-49.1688,60.6367,-8.60096,-0.531407,3.55125,9.32043,1.03493,5.10878,-1.17958,37.8473,7,0,0,0
0,1405349649,697214,29.7183,20.3734,-48.8462,60.6976,-8.60266,-0.527918,3.52,9.30993,1.05141,5.91487,-1.33011,37.9478,7,0,0,0
0,1405349650,698216,29.9299,20.2501,-48.8428,60.7576,-8.60826,-0.542934,3.52835,9.31913,2.1448,5.47447,-1.6944,37.9371,7,0,0,0
0,1405349651,699217,29.4782,20.3403,-49.2303,60.8795,-8.58531,-0.525116,3.52349,9.29507,3.09109,5.1185,-1.4751,37.9953,7,0,0,0
0,1405349652,700220,29.858,20.3413,-49.1128,60.97,-8.59897,-0.577482,3.54477,9.31886,0.817798,5.16979,-2.70867,37.9841,6,0,0,0
0,1405349653,701222,29.531,20.0484,-49.1011,60.7037,-8.5973,-0.551703,3.54934,9.3175,1.06759,5.96067,-2.37737,38.0654,6,0,0,0
0,1405349654,702230,29.6249,20.0949,-49.1886,60.8355,-8.58685,-0.549509,3.54947,9.30778,2.17147,6.54395,-1.08607,37.9782,7,0,0,0
0,1405349655,703232,29.6345,20.4378,-49.1766,60.9446,-8.60384,-0.531375,3.51707,9.31011,0.349759,4.96671,0.146685,38.1758,5,0,0,0
0,1405349656,704240,29.6852,20.2241,-49.3168,61.0113,-8.60791,-0.526862,3.54777,9.32525,3.06172,5.68399,-0.0215687,38.0351,6,0,0,0
0,1405349657,705251,29.6272,20.2241,-49.0127,60.7374,-8.59972,-0.53965,3.51328,9.30535,2.93843,7.13403,-1.60746,38.0463,8,0,0,0
0,1405349658,706260,30.0071,19.7958,-48.9808,60.757,-8.5939,-0.529905,3.53086,9.30607,2.3352,6.06237,-1.48181,38.0992,6,0,0,0
0,1405349659,707261,29.334,20.2662,-48.7205,60.3729,-8.61722,-0.55131,3.57058,9.34395,2.69014,4.78429,-0.974461,38.0299,7,0,0,0
0,1405349660,708267,29.5044,19.937,-48.6543,60.2929,-8.61828,-0.552755,3.53371,9.331,2.4541,6.5133,-1.37564,38.1839,6,0,0,0
0,1405349661,709275,29.8153,20.0176,-48.7321,60.5349,-8.61021,-0.546662,3.54657,9.32806,1.18139,5.54924,-2.09128,38.0453,7,0,0,0
0,1405349662,710277,29.6377,20.4112,-49.1209,60.8923,-8.59763,-0.542668,3.51689,9.30496,3.08459,6.19464,-1.37786,38.0751,6,0,0,0
0,1405349663,711283,29.5451,20.2485,-48.8643,60.5858,-8.59968,-0.534202,3.52246,9.30847,1.86011,5.93663,-1.56027,37.9984,6,0,0,0
0,1405349664,712287,29.9039,19.9929,-48.948,60.7442,-8.59373,-0.545789,3.52514,9.30466,1.1016,7.51386,-1.81248,38.0367,6,0,0,0
0,1405349665,713289,29.4598,20.2697,-48.8088,60.5065,-8.58339,-0.527052,3.55321,9.30472,2.10557,5.83261,-1.41543,38.0338,7,0,0,0
0,1405349666,714293,29.6198,19.9356,-48.5387,60.2558,-8.6008,-0.520451,3.55271,9.32021,2.79087,6.29578,-1.50626,38.0111,7,0,0,0
0,1405349667,715296,29.8057,20.3498,-49.0297,60.8803,-8.59732,-0.536369,3.50222,9.29877,1.85843,4.84307,-2.14665,38.0285,6,0,0,0
0,1405349668,716300,29.7113,19.868,-48.603,60.3303,-8.60214,-0.516212,3.52595,9.31104,1.68972,5.50456,-1.35978,37.9968,6,0,0,0
0,1405349669,717313,30.0541,19.8613,-48.9235,60.7555,-8.60594,-0.568576,3.55768,9.32966,1.88606,6.21291,-1.20284,38.0264,6,0,0,0
0,1405349670,718314,29.3299,20.0766,-49.0861,60.6033,-8.60252,-0.507255,3.52322,9.30988,1.93345,6.7321,-2.34106,38.041,5,0,0,0
0,1405349671,719316,29.6624,19.9673,-48.9543,60.6224,-8.5903,-0.560812,3.52752,9.30329,3.14454,6.61378,-2.45675,37.9267,6,0,0,0
0,1405349672,720326,29.7289,19.8837,-48.757,60.4683,-8.61352,-0.535512,3.5496,9.33162,2.00507,6.07717,-0.809735,37.8983,6,0,0,0
0,1405349673,721327,29.5056,20.1038,-48.7093,60.3932,-8.59873,-0.569292,3.55512,9.32208,2.69527,5.45504,-1.76336,37.8966,7,0,0,0
0,1405349674,722332,29.4743,20.1474,-48.9535,60.5896,-8.60034,-0.526302,3.53351,9.31282,1.21027,5.86698,-1.11294,37.9524,7,0,0,0
0,1405349675,723335,29.8066,20.4811,-48.7126,60.6698,-8.62066,-0.542278,3.54359,9.33632,1.89545,5.51026,-1.61796,37.9175,7,0,0,0
0,1405349676,724342,29.7709,19.9159,-48.7087,60.4607,-8.59763,-0.527749,3.50838,9.30089,1.10138,6.00575,-2.06599,38.0029,6,0,0,0
0,1405349677,725349,29.6861,20.3969,-49.1818,60.9602,-8.59655,-0.556573,3.55932,9.3209,1.3885,5.74151,-2.11588,37.9852,6,0,0,0
0,1405349678,726352,29.3569,20.2828,-48.8799,60.5183,-8.59885,-0.543504,3.55384,9.32016,1.94908,6.43941,-2.26072,37.8653,7,0,0,0
0,1405349679,727366,29.7176,19.8827,-48.8746,60.5573,-8.58911,-0.527454,3.50545,9.29189,2.2502,6.12075,-1.41391,37.8779,6,0,0,0
0,1405349680,728370,29.9941,20.142,-48.5908,60.5509,-8.60598,-0.523554,3.52719,9.31547,1.92731,6.26574,-1.53384,37.8838,6,0,0,0
0,1405349681,729371,29.7098,20.5038,-49.0635,60.9123,-8.59257,-0.534746,3.54296,9.30972,3.15324,7.36709,-2.04527,37.7867,6,0,0,0
0,1405349682,730379,29.7157,20.0021,-48.5832,60.3608,-8.60692,-0.549855,3.55686,9.32913,0.944616,7.14095,-1.19434,37.8198,6,0,0,0
0,1405349683,731383,29.3187,19.9969,-48.8805,60.405,-8.58607,-0.541067,3.56532,9.31262,1.51153,6.75252,-1.11073,37.7562,7,0,0,0
0,1405349684,732396,29.5028,20.2042,-48.7341,60.4453,-8.61322,-0.553506,3.52559,9.32329,2.5583,6.4436,-1.22017,37.8699,7,0,0,0
0,1405349685,733402,29.6599,19.9651,-49.0536,60.7007,-8.5985,-0.53638,3.52745,9.3094,1.6833,6.67872,-1.08761,37.8443,7,0,0,0
0,1405349686,734413,29.7476,20.026,-49.2527,60.9245,-8.59693,-0.530462,3.56764,9.3229,0.768785,7.00874,-1.5823,37.7241,7,0,0,0
0,1405349687,735418,29.7599,20.5273,-48.9938,60.8886,-8.59318,-0.552415,3.55659,9.3165,2.0571,6.17009,-1.64157,37.8797,7,0,0,0
0,1405349688,736422,29.5398,19.9199,-48.6646,60.3129,-8.59834,-0.52657,3.53155,9.31024,1.11388,5.56851,-1.31037,38.0382,7,0,0,0
0,1405349689,737425,29.7666,19.9772,-48.9184,60.6478,-8.6145,-0.544019,3.54875,9.33269,2.33577,7.22915,-0.187168,38.0238,6,0,0,0
0,1405349690,738433,29.7982,19.6194,-48.9971,60.61,-8.60722,-0.573952,3.51316,9.31429,2.41734,5.82945,-0.464347,37.7838,6,0,0,0
0,1405349691,739442,29.75,19.7994,-48.8339,60.513,-8.58131,-0.541811,3.54486,9.30045,0.405868,5.56894,-1.41616,37.954,7,0,0,0
0,1405349692,740444,29.5212,20.32,-49.2143,60.8806,-8.60915,-0.540777,3.53045,9.32062,1.65273,6.48031,-2.15464,37.9483,7,0,0,0
0,1405349693,741448,29.8811,19.9833,-48.6266,60.4712,-8.60472,-0.540687,3.56034,9.32789,1.60943,5.53168,-1.2388,37.9591,7,0,0,0
0,1405349694,742455,29.2759,20.064,-48.8397,60.3735,-8.60366,-0.538583,3.51474,9.30948,1.86183,7.06887,-1.45418,37.9905,7,0,0,0
0,1405349695,743458,29.8819,20.1388,-48.7505,60.6227,-8.59037,-0.551122,3.51741,9.29895,0.872038,5.42186,-2.29257,37.877,7,0,0,0
0,1405349696,744462,29.6487,19.9341,-48.9465,60.5984,-8.61894,-0.546327,3.53192,9.33054,0.883026,6.18554,-1.12531,37.8685,6,0,0,0
0,1405349697,745463,29.6587,20.0833,-48.9307,60.6399,-8.60209,-0.533647,3.50183,9.30287,2.79169,5.69489,-1.34376,37.9283,6,0,0,0
0,1405349698,746468,29.4538,19.9772,-48.7209,60.3352,-8.59205,-0.534088,3.53875,9.30759,2.69273,6.34234,-1.27969,37.7371,7,0,0,0
0,1405349699,747474,29.9019,19.9469,-48.631,60.473,-8.60386,-0.5499,3.55405,9.32523,3.2792,5.12264,-0.764075,37.7897,6,0,0,0
0,1405349700,748478,29.6332,20.5152,-49.3551,61.114,-8.58544,-0.524255,3.54404,9.30294,1.78398,6.34176,-0.868369,37.708,7,0,0,0
0,1405349701,749483,29.6627,19.8635,-48.4082,60.148,-8.6137,-0.537726,3.53158,9.32508,2.56833,5.43498,-0.878138,37.7322,7,0,0,0
0,1405349702,750491,29.5339,20.2701,-49.3799,61.0041,-8.58358,-0.544274,3.52643,9.29568,0.908663,6.44838,-2.12066,37.7588,6,0,0,0
0,1405349703,751499,29.9242,20.1189,-48.928,60.7798,-8.58735,-0.542404,3.52677,9.29919,3.30066,6.30625,-1.84537,37.6549,7,0,0,0
0,1405349704,752506,29.8563,20.0533,-48.8639,60.673,-8.60927,-0.546434,3.51119,9.31379,1.64788,5.76869,-1.44067,37.5483,6,0,0,0
0,1405349705,753512,29.8515,19.9601,-48.7492,60.5475,-8.59996,-0.53989,3.54664,9.31823,2.87882,6.72694,-1.38223,37.4523,7,0,0,0
0,1405349706,754519,29.7969,19.9956,-48.8961,60.6507,-8.59399,-0.526095,3.53462,9.30736,1.96801,5.02611,-0.871852,37.4307,6,0,0,0
0,1405349707,755523,29.7753,20.0742,-48.9437,60.7045,-8.58807,-0.527439,3.54423,9.30563,1.37252,6.45847,-1.41732,37.3353,6,0,0,0
0,1405349708,756526,29.7559,20.117,-49.1098,60.843,-8.60309,-0.541144,3.53107,9.31528,1.96503,6.71387,-2.03073,37.5091,7,0,0,0
0,1405349709,757529,29.5762,20.1151,-49.1677,60.8016,-8.589,-0.527105,3.51244,9.29441,1.97831,4.52146,-2.17111,37.5766,7,0,0,0
0,1405349710,758544,29.3813,20.2598,-48.5546,60.2601,-8.59628,-0.525236,3.51832,9.30325,2.52417,5.67351,-1.04604,37.5068,7,0,0,0
0,1405349711,759548,29.3653,20.2233,-48.9724,60.5773,-8.60218,-0.547033,3.53178,9.31505,1.34186,6.97981,-2.78899,37.6009,6,0,0,0
0,1405349712,760557,29.7409,20.1004,-48.5922,60.4131,-8.59158,-0.534563,3.53199,9.30462,1.89839,4.83332,-1.81029,37.5777,6,0,0,0
0,1405349713,761560,29.818,20.0663,-49.2028,60.9318,-8.61674,-0.525793,3.54798,9.33342,0.962818,6.39074,-1.26269,37.5192,6,0,0,0
0,1405349714,762567,29.758,19.771,-48.773,60.4585,-8.61107,-0.563831,3.53368,9.32498,2.70932,4.63971,-0.854594,37.5647,7,0,0,0
0,1405349715,763572,29.8189,20.0784,-49.1243,60.8729,-8.59421,-0.522227,3.51147,9.29858,2.35877,4.96016,-0.914296,37.5353,6,0,0,0
0,1405349716,764577,29.8423,19.7686,-48.6879,60.4307,-8.59563,-0.536396,3.53434,9.30936,2.35441,5.805,-0.626261,37.6078,6,0,0,0
0,1405349717,765582,29.7506,19.8629,-48.8795,60.571,-8.59616,-0.546296,3.52689,9.30759,0.97281,6.34954,-1.21031,37.4641,6,0,0,0
0,1405349718,766587,29.6505,20.2508,-49.2806,60.974,-8.59797,-0.557676,3.55065,9.31897,2.16176,5.74353,0.237245,37.325,7,0,0,0
0,1405349719,767596,29.6296,20.0185,-49.0079,60.6665,-8.6056,-0.549088,3.52122,9.31433,0.52963,5.55738,-1.21452,37.3441,6,0,0,0
0,1405349720,768599,29.8717,20.2922,-49.098,60.9484,-8.59522,-0.554251,3.51696,9.30344,2.19506,5.61806,-1.50156,37.3891,7,0,0,0
0,1405349721,769608,29.7858,20.043,-49.1483,60.8644,-8.60296,-0.553743,3.53041,9.31564,2.52512,5.2575,-1.36346,37.2934,8,0,0,0
0,1405349722,770626,29.5977,20.2464,-48.9302,60.6639,-8.60243,-0.542054,3.52335,9.3118,1.64234,6.13183,-1.61771,37.1611,6,0,0,0
0,1405349723,771630,29.8438,19.7757,-49.001,60.6863,-8.58086,-0.54234,3.50946,9.28664,1.52871,5.6208,-1.74134,37.175,6,0,0,0
0,1405349724,772639,29.6816,20.2025,-49.1355,60.8559,-8.59062,-0.554003,3.5145,9.29824,0.258652,5.62372,-2.10913,37.1409,6,0,0,0
0,1405349725,773652,29.3945,20.0766,-49.2072,60.7326,-8.61644,-0.552009,3.52514,9.326,1.25977,6.2788,0.257186,37.2279,6,0,0,0
0,1405349726,774656,29.9392,19.909,-48.7011,60.5352,-8.59184,-0.56047,3.55651,9.31572,-0.265358,5.38067,-1.1599,37.322,6,0,0,0
0,1405349727,775658,29.8014,20.0556,-49.1295,60.861,-8.60377,-0.563658,3.53476,9.31864,0.950205,6.94295,-0.646216,37.1901,7,0,0,0
0,1405349728,776666,29.582,19.7551,-49.0266,60.572,-8.60672,-0.572757,3.5294,9.31989,1.46172,5.86378,-1.82818,37.2067,6,0,0,0
0,1405349729,777677,29.8969,19.6786,-48.828,60.5413,-8.5873,-0.587957,3.51179,9.29624,2.32868,6.20393,-0.621332,37.2163,7,0,0,0
0,1405349730,778681,29.7171,19.8684,-48.8293,60.5157,-8.58848,-0.562878,3.53851,9.3059,0.994255,5.90684,-1.34305,37.1913,6,0,0,0
0,1405349731,779694,29.8432,20.0762,-49.3126,61.036,-8.59364,-0.59614,3.5309,9.30985,2.39186,6.71804,-1.93915,37.0959,7,0,0,0
0,1405349732,780702,29.7355,19.9304,-49.061,60.7322,-8.58991,-0.527461,3.5425,9.30667,1.44615,6.00214,-0.673476,37.2531,6,0,0,0
0,1405349733,781707,29.5036,20.0111,-49.1117,60.6866,-8.60325,-0.649626,3.54099,9.32612,1.77204,5.9588,-1.97231,37.2512,6,0,0,0
0,1405349734,782715,29.4078,20.1207,-48.7628,60.3944,-8.59647,-0.576312,3.54675,9.31724,2.54394,6.6664,-0.451654,37.3074,7,0,0,0
0,1405349735,783724,29.7494,19.9795,-48.8382,60.5753,-8.60305,-0.562759,3.53826,9.31925,1.29291,5.59433,-1.31079,37.2864,6,0,0,0
0,1405349736,784732,29.5961,20.1592,-49.1942,60.8472,-8.60822,-0.559374,3.56523,9.33409,0.708236,6.03751,-1.09926,37.3289,7,0,0,0
0,1405349737,785734,29.4723,20.2248,-49.1094,60.7403,-8.5962,-0.571883,3.56643,9.32422,0.229292,5.3524,-1.24236,37.3149,6,0,0,0
0,1405349738,786739,29.4724,20.0954,-49.2506,60.8118,-8.58597,-0.571032,3.51743,9.29609,1.58858,6.06277,-1.00516,37.4234,6,0,0,0
0,1405349739,787747,29.7211,20.1092,-48.7545,60.537,-8.61549,-0.546782,3.53815,9.32975,-0.615704,6.48351,-0.967774,37.1912,7,0,0,0
0,1405349740,788754,29.4877,20.395,-49.3435,60.994,-8.58626,-0.581552,3.5409,9.30592,1.59136,6.37479,-1.2707,37.3602,7,0,0,0
0,1405349741,789759,29.4966,20.163,-48.8456,60.5185,-8.62018,-0.556605,3.55117,9.3396,1.1174,5.23086,-1.23393,37.37,7,0,0,0
0,1405349742,790761,29.4649,19.9402,-49.0151,60.5663,-8.57957,-0.572481,3.55906,9.30611,2.08677,6.20391,-0.940005,37.4418,7,0,0,0
0,1405349743,791767,29.6758,19.9416,-48.9058,60.5813,-8.60394,-0.552447,3.54345,9.32143,1.00115,6.37852,-1.83907,37.3838,7,0,0,0
0,1405349744,792777,29.6925,20.3175,-49.0589,60.8377,-8.59682,-0.583337,3.54422,9.31703,1.30121,6.1575,-1.69294,37.5506,6,0,0,0
0,1405349745,793787,29.5998,20.0229,-48.9198,60.5822,-8.59476,-0.550187,3.54995,9.3153,1.32614,6.63639,-1.46282,37.5304,6,0,0,0
0,1405349746,794789,29.6502,19.976,-48.5213,60.2702,-8.59464,-0.565604,3.5448,9.31415,1.94674,4.484,-0.219326,37.4444,7,0,0,0
0,1405349747,795795,29.6403,19.8879,-48.5097,60.2268,-8.57926,-0.550526,3.53768,9.29634,1.65114,5.06664,-1.14597,37.438,7,0,0,0
0,1405349748,796799,29.6028,20.3472,-49.0651,60.8088,-8.59696,-0.55201,3.53813,9.31294,1.83995,7.12989,-1.48584,37.5442,7,0,0,0
0,1405349749,797808,29.5253,19.9319,-48.8493,60.4589,-8.59724,-0.571955,3.53406,9.31285,0.947215,6.92744,-2.50615,37.6082,7,0,0,0
0,1405349750,798810,29.3059,20.2148,-48.8878,60.4772,-8.58133,-0.54449,3.55207,9.30338,2.60839,5.7002,-1.70678,37.5377,7,0,0,0
0,1405349751,799811,29.6418,20.0975,-48.8702,60.5875,-8.5985,-0.565099,3.51643,9.30693,2.36773,4.85808,-1.11071,37.6009,6,0,0,0
0,1405349752,800813,29.2292,19.7678,-49.0512,60.4245,-8.59304,-0.549128,3.56739,9.32031,1.73118,7.1638,-1.09945,37.6316,13,0,0,0
0,1405349753,801817,29.5601,19.9665,-49.0016,60.6104,-8.58648,-0.569885,3.54462,9.30681,1.97778,5.4345,-1.91936,37.6968,11,0,0,0
0,1405349754,802822,29.3174,20.2409,-49.2654,60.797,-8.60003,-0.559297,3.58145,9.33274,1.08323,5.28375,-0.737575,37.6408,11,0,0,0
0,1405349755,803823,29.2994,19.7704,-48.7657,60.228,-8.59809,-0.567939,3.53135,9.31236,2.45259,6.21009,-1.52631,37.7823,11,0,0,0
0,1405349756,804827,29.197,19.9298,-49.0767,60.4829,-8.59552,-0.570004,3.52465,9.30758,2.60861,6.03395,-1.33011,37.751,10,0,0,0
0,1405349757,805829,29.7234,20.0473,-48.6559,60.4382,-8.58144,-0.571462,3.57191,9.31269,2.74379,5.60472,-0.911711,37.7868,11,0,0,0
0,1405349758,806830,29.4748,20.0107,-48.6161,60.272,-8.59728,-0.565273,3.53469,9.31272,1.22057,5.32866,-1.53241,37.7471,11,0,0,0
0,1405349759,807836,29.3306,20.213,-49.1528,60.7029,-8.59787,-0.549246,3.5268,9.30932,2.22996,6.35422,-2.58475,37.9053,11,0,0,0
0,1405349760,808841,29.2694,20.3408,-48.984,60.5795,-8.59354,-0.56627,3.5208,9.30407,2.51423,7.26048,-0.441734,37.8592,10,0,0,0
0,1405349761,809842,29.299,20.5528,-48.3942,60.1901,-8.591,-0.558338,3.56267,9.31717,2.1011,5.01176,-2.02225,37.9265,11,0,0,0
0,1405349762,810846,29.409,20.0282,-48.6386,60.2639,-8.59461,-0.549449,3.5113,9.30045,1.71711,6.68266,-0.910064,37.9188,11,0,0,0
0,1405349763,811851,29.6475,19.88,-48.7483,60.4201,-8.59235,-0.549047,3.56598,9.31913,1.19656,5.5123,-2.50736,38.0317,11,0,0,0
0,1405349764,812857,29.4084,20.0134,-49.0535,60.594,-8.58383,-0.552255,3.55533,9.30739,1.37154,6.13644,-2.29991,38.0709,11,0,0,0
0,1405349765,813864,29.4174,20.1053,-49.0201,60.6018,-8.58443,-0.58501,3.53892,9.30369,1.9148,7.33394,-1.45345,37.9896,10,0,0,0
0,1405349766,814870,29.1289,20.1768,-49.1169,60.5646,-8.60338,-0.645588,3.56112,9.33362,1.88689,5.06945,-2.01937,37.9796,10,0,0,0
0,1405349767,815874,29.7966,19.9191,-48.905,60.6326,-8.58147,-0.53362,3.5604,9.30607,2.23795,6.07843,-1.41231,38.049,10,0,0,0
0,1405349768,816880,29.686,20.3311,-48.983,60.7778,-8.59461,-0.513846,3.54548,9.31138,1.40518,5.45008,-1.79006,38.0455,11,0,0,0
0,1405349769,817881,29.4907,19.9754,-48.6308,60.2799,-8.59628,-0.686173,3.53495,9.32002,2.02013,7.34019,-1.82259,37.9862,10,0,0,0
0,1405349770,818887,28.773,19.5582,-48.6466,59.8072,-8.60845,-0.446919,3.51363,9.30864,2.12323,6.40966,-1.67946,38.0995,10,0,0,0
0,1405349771,819891,29.3385,19.7592,-48.7046,60.194,-8.57819,-0.574775,3.50272,9.28357,1.70191,5.11091,-1.97762,38.0277,9,0,0,0
0,1405349772,820894,29.4796,19.8082,-48.9962,60.5148,-8.57802,-0.585318,3.52134,9.29112,1.63429,6.41943,-1.19418,38.1155,10,0,0,0
0,1405349773,821896,28.8406,19.716,-48.4797,59.756,-8.58029,-0.564196,3.52758,9.29428,0.71192,5.65337,-1.17265,37.9858,10,0,0,0
0,1405349774,822902,28.5992,20.1674,-48.4995,59.8067,-8.57997,-0.591094,3.54531,9.30239,0.726048,5.67807,-1.14426,38.0526,11,0,0,0
0,1405349775,823903,29.5037,20.0065,-48.8693,60.4892,-8.62554,-0.562726,3.49432,9.32346,2.45825,7.16379,-0.985486,37.9409,10,0,0,0
0,1405349776,824910,29.2339,19.8487,-48.8313,60.2751,-8.59033,-0.587485,3.51242,9.29924,1.12068,6.16497,-1.45004,37.9636,11,0,0,0
0,1405349777,825913,29.1747,20.2557,-48.8427,60.391,-8.58003,-0.590996,3.48119,9.27819,2.12916,6.90398,-0.948521,37.8433,10,0,0,0
0,1405349778,826916,29.3239,20.1986,-48.9748,60.5509,-8.59269,-0.570906,3.54821,9.31397,1.56766,6.03258,-2.52582,37.9166,10,0,0,0
0,1405349779,827921,29.1527,20.1452,-48.8646,60.3611,-8.58045,-0.641774,3.54174,9.30483,1.60087,6.18265,-2.34156,37.815,9,0,0,0
0,1405349780,828924,29.5281,20.0765,-48.9272,60.571,-8.60168,-0.560727,3.52376,9.31237,1.6715,6.71095,-1.52177,37.9057,10,0,0,0
0,1405349781,829926,29.5866,19.8047,-49.3343,60.8397,-8.59548,-0.553484,3.54714,9.31509,2.1567,7.25575,-2.60672,37.9331,11,0,0,0
0,1405349782,830927,29.7153,19.4258,-48.7835,60.334,-8.58573,-0.559755,3.51985,9.2961,1.88997,5.84045,-2.04904,37.8967,10,0,0,0
0,1405349783,831933,29.1835,19.8528,-48.331,59.8472,-8.59781,-0.543942,3.57049,9.32559,1.47409,5.06508,-2.75043,37.8049,11,0,0,0
0,1405349784,832937,29.7814,19.6335,-48.8741,60.5069,-8.59927,-0.557126,3.49391,9.29867,2.47244,5.54384,-1.2795,37.8134,11,0,0,0
0,1405349785,833943,29.2524,20.3723,-48.9012,60.515,-8.58888,-0.595537,3.57306,9.3215,2.43786,6.35941,-1.07787,37.7688,11,0,0,0
0,1405349786,834947,29.4241,20.1979,-48.8508,60.499,-8.57225,-0.549607,3.53528,9.2889,0.986329,6.03859,-2.0162,37.9735,10,0,0,0
0,1405349787,835949,29.3972,20.2351,-49.0673,60.6733,-8.6059,-0.584931,3.53126,9.32059,1.14733,6.15123,-1.77822,37.7596,11,0,0,0
0,1405349788,836950,29.3668,19.8269,-48.7886,60.2979,-8.58314,-0.537313,3.56135,9.30818,2.63689,6.76166,-1.83575,37.7976,12,0,0,0
0,1405349789,837954,29.5268,19.8823,-48.9591,60.532,-8.5978,-0.5578,3.54865,9.31806,1.49152,6.9192,-1.1234,37.8505,10,0,0,0
0,1405349790,838955,29.3572,19.9734,-48.8955,60.428,-8.58787,-0.586613,3.60696,9.33304,2.43835,6.85549,-1.60081,37.9243,11,0,0,0
0,1405349791,839956,29.3694,20.0454,-48.401,60.0586,-8.57675,-0.573267,3.5587,9.30342,2.17424,5.87933,-0.845586,37.9312,11,0,0,0
0,1405349792,840959,29.0859,20.4244,-48.8792,60.4344,-8.60367,-0.552662,3.57078,9.33161,2.44042,5.5267,-0.399104,37.976,9,0,0,0
0,1405349793,841960,29.4034,20.0412,-48.8387,60.4271,-8.59465,-0.569945,3.58334,9.32915,1.29989,6.24726,-1.76725,37.9941,12,0,0,0
0,1405349794,842961,29.7586,19.6567,-48.6493,60.3218,-8.60719,-0.541202,3.54677,9.32503,1.71268,5.88805,-0.90076,38.0043,11,0,0,0
0,1405349795,843963,29.2041,19.9579,-48.9829,60.4195,-8.60318,-0.578309,3.57427,9.33405,0.781974,6.01393,-1.0266,37.9116,10,0,0,0
0,1405349796,844965,28.8554,20.0647,-48.7235,60.0767,-8.58876,-0.559665,3.56969,9.31787,1.44336,5.79244,-0.313014,37.9082,10,0,0,0
0,1405349797,845970,29.789,19.9575,-48.6426,60.4301,-8.57292,-0.570479,3.5364,9.29121,1.06168,5.9917,-1.61281,37.9355,11,0,0,0
0,1405349798,846973,29.5955,19.968,-49.0033,60.6295,-8.57861,-0.566783,3.57613,9.31142,2.78452,6.41832,-1.36426,38.0546,11,0,0,0
0,1405349799,847974,29.4067,20.4783,-48.7758,60.5243,-8.58681,-0.583817,3.54976,9.30994,1.11862,5.29188,-2.03881,37.9884,10,0,0,0
0,1405349800,848979,29.3754,19.8755,-48.7718,60.3045,-8.60389,-0.543958,3.57211,9.33181,2.11442,5.91947,-2.34237,38.0423,10,0,0,0
0,1405349801,849984,29.0342,20.2345,-48.4147,59.97,-8.57816,-0.569773,3.54457,9.29911,0.836225,5.14221,-0.767766,38.1838,10,0,0,0
0,1405349802,850988,29.3597,19.7946,-49.4089,60.787,-8.58511,-0.575205,3.53178,9.30099,2.92021,5.91637,-1.10076,38.1514,11,0,0,0
0,1405349803,851991,29.0359,20.0239,-48.7873,60.2016,-8.59923,-0.568438,3.53725,9.31569,2.30076,7.16712,-0.0217028,38.1167,9,0,0,0
0,1405349804,852992,29.4638,19.8292,-48.8796,60.4196,-8.59048,-0.570987,3.54713,9.31152,1.0791,6.65235,-1.73881,38.2015,9,0,0,0
0,1405349805,853998,29.4457,19.8074,-48.714,60.2697,-8.59863,-0.570677,3.56191,9.32466,0.976739,7.36879,-0.930225,38.1903,9,0,0,0
0,1405349807,855001,29.3828,19.8453,-48.6506,60.2002,-8.57031,-0.546766,3.54398,9.29026,2.38922,5.88629,-1.5135,38.1739,10,0,0,0
0,1405349808,856004,29.2506,19.9797,-48.792,60.2946,-8.59999,-0.553146,3.53957,9.31635,2.58248,5.446,-2.00366,38.1635,10,0,0,0
0,1405349809,857013,29.4323,20.1218,-48.8438,60.472,-8.59448,-0.574577,3.54096,9.31309,1.67131,5.97321,-2.12154,38.2625,10,0,0,0
0,1405349810,858017,29.0607,20.2825,-49.182,60.6199,-8.58486,-0.579806,3.54044,9.30434,1.76328,5.57548,-1.49986,38.2538,11,0,0,0
0,1405349811,859022,28.9169,19.8113,-48.743,60.038,-8.59456,-0.576226,3.50955,9.30136,1.86691,6.5869,-1.30033,38.3157,11,0,0,0
0,1405349812,860027,29.6074,19.7903,-49.0337,60.6016,-8.59966,-0.558294,3.53058,9.31294,1.88254,5.70545,-0.698339,38.1916,10,0,0,0
0,1405349813,861033,29.3057,20.2612,-49.0866,60.6533,-8.58731,-0.595249,3.5306,9.30383,1.57473,5.77634,-1.84253,38.3152,10,0,0,0
0,1405349814,862037,29.0583,20.0692,-49.1309,60.5062,-8.59346,-0.570675,3.52775,9.30689,2.51735,5.87945,0.0741478,38.23,11,0,0,0
0,1405349815,863038,29.4148,19.7548,-48.8771,60.3693,-8.60471,-0.580491,3.53944,9.32232,2.26858,6.31278,-1.62644,38.3154,10,0,0,0
0,1405349816,864040,29.4861,20.0655,-48.9009,60.5256,-8.60401,-0.591947,3.53349,9.32014,1.7531,6.69424,-0.976825,38.3232,10,0,0,0
0,1405349817,865045,29.479,19.8786,-48.9364,60.4892,-8.57943,-0.548791,3.54023,9.29736,2.10174,6.02697,-2.50877,38.411,11,0,0,0
0,1405349818,866051,29.3625,20.3624,-48.9089,60.5712,-8.6109,-0.569364,3.55525,9.33336,1.89224,7.14195,-1.92008,38.2395,11,0,0,0
0,1405349819,867054,29.1554,19.9486,-48.5251,60.0223,-8.60811,-0.575053,3.53974,9.32524,1.29315,5.8947,-1.67232,38.384,10,0,0,0
0,1405349820,868055,28.9633,19.6703,-49.0823,60.2899,-8.58145,-0.567464,3.5289,9.29605,1.50367,6.38864,-1.53853,38.3388,11,0,0,0
0,1405349821,869057,29.3905,19.8578,-48.7993,60.3283,-8.58689,-0.585987,3.56684,9.31667,0.946915,5.45932,-0.717997,38.3702,10,0,0,0
0,1405349822,870060,29.1846,19.5632,-49.1293,60.3999,-8.60167,-0.575886,3.53595,9.3179,1.17216,6.41844,-1.13844,38.4059,10,0,0,0
0,1405349823,871066,29.5179,19.9315,-48.7821,60.4009,-8.57813,-0.521695,3.53485,9.29256,1.22419,5.77819,-1.38785,38.3907,11,0,0,0
0,1405349824,872067,29.1582,19.5732,-48.6665,60.0145,-8.60584,-0.500068,3.50225,9.30464,1.90705,6.37528,-1.15339,38.4557,11,0,0,0
0,1405349825,873069,29.5737,19.7708,-48.9204,60.4872,-8.60142,-0.527671,3.49951,9.30104,2.16445,6.46509,-2.4954,38.4349,10,0,0,0
0,1405349826,874070,29.374,20.0609,-48.8844,60.4562,-8.59344,-0.5947,3.5427,9.31405,0.27854,5.89591,-1.84346,38.509,6,0,0,0
0,1405349827,875074,29.3258,20.1468,-48.8001,60.3933,-8.59066,-0.571986,3.56956,9.32032,2.15294,6.25357,-1.23473,38.4921,6,0,0,0
0,1405349828,876079,29.2762,20.3012,-48.7701,60.3966,-8.59279,-0.514645,3.53413,9.30543,1.81989,6.22597,-1.6499,38.5847,7,0,0,0
0,1405349829,877085,29.2603,20.4822,-48.8298,60.4982,-8.59786,-0.590605,3.52603,9.31154,-0.306542,5.7949,-0.986203,38.6459,7,0,0,0
0,1405349830,878093,29.68,20.0182,-49.3824,60.9939,-8.6019,-0.573687,3.541,9.3199,1.83926,6.05334,-1.92985,38.5908,7,0,0,0
0,1405349831,879095,29.5341,19.7143,-48.3939,60.0241,-8.59931,-0.555138,3.53915,9.31568,3.62109,5.77232,-2.86915,38.6562,6,0,0,0
0,1405349832,880100,29.3978,19.6973,-48.4955,60.0336,-8.59552,-0.582101,3.54302,9.3153,1.22099,6.16775,-2.46058,38.7107,7,0,0,0
0,1405349833,881110,29.623,19.9887,-48.7445,60.4408,-8.58942,-0.566776,3.58567,9.32504,3.28236,5.90268,-1.28804,38.7623,7,0,0,0
0,1405349834,882117,29.3845,19.9604,-48.9265,60.4621,-8.62243,-0.548048,3.53305,9.3343,1.263,6.41575,-0.976583,38.7791,7,0,0,0
0,1405349835,883119,29.158,20.3159,-48.8359,60.3976,-8.59307,-0.557795,3.52371,9.30422,0.657133,6.38173,-2.77091,38.6108,7,0,0,0
0,1405349836,884125,29.2487,20.3884,-48.9385,60.5487,-8.5934,-0.577618,3.57575,9.32556,-0.846389,6.80722,-1.56101,38.7725,5,0,0,0
0,1405349837,885128,29.6516,20.0998,-48.8608,60.5854,-8.59365,-0.560675,3.55276,9.31597,1.78103,6.40467,-1.50196,38.642,7,0,0,0
0,1405349838,886130,29.2172,20.1879,-48.6363,60.222,-8.58004,-0.547465,3.55402,9.30311,0.886901,6.19698,-0.791561,38.9553,6,0,0,0
0,1405349839,887138,29.5659,20.1517,-49.0667,60.7271,-8.59183,-0.56806,3.53831,9.30923,3.42268,6.31353,-0.275489,38.8405,7,0,0,0
0,1405349840,888142,29.1521,20.6104,-48.9809,60.6116,-8.61514,-0.551647,3.53692,9.32924,-0.762683,5.88646,-0.632853,38.9137,7,0,0,0
0,1405349841,889147,29.2795,19.6723,-48.6069,60.0577,-8.6062,-0.557325,3.56576,9.3323,-0.381473,4.78805,-2.60282,38.8741,6,0,0,0
0,1405349842,890150,29.4989,20.047,-48.7706,60.4205,-8.60073,-0.544016,3.53581,9.31506,1.16605,5.73653,-0.644086,38.948,6,0,0,0
0,1405349843,891157,29.2479,19.8552,-48.5514,60.0575,-8.60798,-0.558432,3.55639,9.33044,1.10577,5.61172,-1.48231,39.0258,7,0,0,0
0,1405349844,892159,29.6205,19.6949,-48.8385,60.4191,-8.58959,-0.555349,3.54324,9.30828,2.75448,5.96385,-0.907505,38.8064,6,0,0,0
0,1405349845,893163,29.4564,20.2331,-48.6807,60.3893,-8.59301,-0.553065,3.51993,9.30245,2.60483,6.53904,-1.74867,38.908,7,0,0,0
0,1405349846,894167,29.6875,19.911,-48.3663,60.1423,-8.59514,-0.569611,3.51967,9.30532,2.91583,6.00625,-1.52756,38.9119,7,0,0,0
0,1405349847,895175,29.3405,20.6057,-49.1586,60.8443,-8.58765,-0.574683,3.55658,9.31275,1.43458,6.08784,-0.710502,38.8727,7,0,0,0
0,1405349848,896180,29.5915,19.8243,-48.4069,60.099,-8.58841,-0.566837,3.53769,9.30577,1.76156,7.49049,-1.13751,38.8005,6,0,0,0
0,1405349849,897182,29.4948,20.1507,-48.7895,60.4683,-8.59834,-0.556849,3.53587,9.31364,2.48882,6.94452,-1.24708,38.8704,6,0,0,0
0,1405349850,898185,29.2266,20.2313,-48.5526,60.1735,-8.61406,-0.562929,3.53988,9.33004,0.59457,6.36366,-1.87529,38.9327,7,0,0,0
0,1405349851,899187,29.5662,19.7231,-48.6119,60.2186,-8.59344,-0.564242,3.55534,9.31698,1.96243,6.53133,-0.564259,38.8873,5,0,0,0
0,1405349852,900197,29.3104,20.0756,-48.9567,60.4888,-8.60393,-0.569693,3.54085,9.32147,2.55844,5.66328,-1.45939,38.6979,7,0,0,0
0,1405349853,901205,29.3552,20.182,-48.9396,60.5321,-8.59245,-0.581431,3.52367,9.30508,2.58656,7.08666,-1.42634,38.8239,5,0,0,0
0,1405349854,902209,29.6562,20.1745,-49.1042,60.8089,-8.58079,-0.574836,3.54864,9.3034,2.32231,6.47103,-0.984603,38.6462,6,0,0,0
0,1405349855,903210,29.532,20.1538,-49.096,60.7349,-8.60655,-0.574281,3.53184,9.32075,1.87773,5.41616,-1.63024,38.7321,7,0,0,0
0,1405349856,904212,29.3923,19.9122,-49.0005,60.5099,-8.5864,-0.55477,3.55507,9.30981,2.83877,6.1786,-1.86343,38.7315,7,0,0,0
0,1405349857,905213,29.7291,20.0911,-48.569,60.3856,-8.60709,-0.561835,3.56731,9.33399,1.60038,7.05077,-1.37975,38.7923,7,0,0,0
0,1405349858,906216,29.4586,20.0213,-48.8414,60.4495,-8.59305,-0.568265,3.53368,9.30861,2.29509,5.92477,-1.05554,38.6749,6,0,0,0
0,1405349859,907220,29.2826,20.1091,-49.0889,60.5934,-8.59729,-0.551225,3.54296,9.31503,0.802196,5.67343,-2.12096,38.7099,6,0,0,0
0,1405349860,908235,29.45,19.9243,-48.8831,60.447,-8.59316,-0.577885,3.49802,9.29584,1.49839,4.288,-0.339923,38.7073,7,0,0,0
0,1405349861,909237,29.7772,19.8785,-48.9667,60.6595,-8.58956,-0.549314,3.54327,9.3079,1.42241,6.3778,-1.28408,38.6254,6,0,0,0
0,1405349862,910245,29.7211,20.15,-49.3055,60.9951,-8.60033,-0.565087,3.50241,9.30332,0.633503,5.88066,-1.68904,38.5902,6,0,0,0
0,1405349863,911249,29.3143,19.8488,-48.7452,60.2445,-8.5916,-0.572092,3.56881,9.32091,1.57797,6.89142,0.422892,38.5757,6,0,0,0
0,1405349864,912255,29.6742,19.74,-48.5824,60.2534,-8.58628,-0.551327,3.58604,9.32136,1.37849,5.39106,-1.55369,38.6283,6,0,0,0
0,1405349865,913262,29.5547,19.7638,-48.8019,60.3797,-8.60277,-0.551076,3.58563,9.33638,2.66664,6.08512,-1.13912,38.6133,7,0,0,0
0,1405349866,914269,29.336,20.2795,-48.9856,60.5925,-8.60422,-0.572983,3.51689,9.31286,1.51003,6.53762,-1.01122,38.6492,5,0,0,0
0,1405349867,915280,29.5747,20.066,-48.9534,60.6114,-8.59902,-0.572939,3.53182,9.31371,1.7159,7.17985,-0.559451,38.6448,7,0,0,0
0,1405349868,916285,29.6936,19.8614,-49.0927,60.7147,-8.60055,-0.549224,3.5506,9.32083,2.88264,5.33217,-1.23105,38.6445,6,0,0,0
0,1405349869,917290,29.4543,20.1444,-48.67,60.35,-8.60198,-0.54491,3.52659,9.31278,3.70896,5.6512,-0.802214,38.6835,7,0,0,0
0,1405349870,918304,29.2183,20.4205,-49.0182,60.6093,-8.61115,-0.560467,3.53503,9.32537,2.90763,6.67831,-1.36751,38.701,7,0,0,0
0,1405349871,919313,29.3667,20.0777,-48.7607,60.3583,-8.5848,-0.561203,3.52184,9.29608,1.01637,7.50918,-1.80441,38.6503,7,0,0,0
0,1405349872,920322,29.5905,19.8359,-48.9666,60.554,-8.59107,-0.580097,3.53685,9.30872,0.642602,6.57189,-1.78811,38.793,6,0,0,0
0,1405349873,921328,29.6782,20.2082,-48.92,60.6822,-8.59966,-0.548222,3.53023,9.31221,2.14299,5.36391,-1.97997,38.7312,6,0,0,0
0,1405349874,922329,29.2797,20.1431,-48.9876,60.5213,-8.60579,-0.553345,3.52438,9.31596,0.942179,5.89679,-1.78397,38.782,7,0,0,0
0,1405349875,923331,29.1379,19.8804,-48.4689,59.9457,-8.58579,-0.56345,3.53874,9.30354,-0.0145054,6.5367,-1.61024,38.7544,5,0,0,0
0,1405349876,924333,29.678,20.3016,-48.9969,60.7753,-8.58707,-0.552555,3.5317,9.30139,2.05024,6.98258,-1.69156,38.8178,7,0,0,0
0,1405349877,925343,29.5625,19.6544,-48.6956,60.2619,-8.59252,-0.566146,3.5673,9.32081,0.550774,6.39573,-1.08916,38.8538,7,0,0,0
0,1405349878,926348,29.558,19.7638,-48.7632,60.3501,-8.59749,-0.542851,3.54151,9.31417,3.28657,5.33966,-1.76179,38.939,7,0,0,0
0,1405349879,927350,29.7602,20.1047,-48.5218,60.3675,-8.5959,-0.566575,3.53707,9.31243,1.55375,5.76006,-1.57197,38.9488,7,0,0,0
0,1405349880,928356,29.4178,20.2405,-49.0376,60.6611,-8.59915,-0.559458,3.54826,9.31925,2.76403,7.23524,-2.47704,39.0083,5,0,0,0
0,1405349881,929357,29.4599,20.4131,-48.868,60.6025,-8.58716,-0.580818,3.53921,9.30605,1.05342,6.31828,-1.92387,39.126,7,0,0,0
0,1405349882,930358,29.5247,20.0606,-49.122,60.7215,-8.57918,-0.574085,3.55142,9.30293,2.18847,6.20072,-1.95571,39.0052,6,0,0,0
0,1405349883,931360,29.2168,19.9219,-48.8138,60.2767,-8.59445,-0.554441,3.5724,9.32385,0.870549,6.45602,-0.935717,39.082,7,0,0,0
0,1405349884,932361,29.6665,20.019,-48.2442,60.0696,-8.60172,-0.560906,3.55676,9.32496,2.09898,5.65433,-1.45012,39.2056,7,0,0,0
