0,1405350502,utime,,bx(uT),by(uT),bz(uT),,B(uT),ax,,,,ay,,az,,,,,A,,,,,gx,,,gy,,,,gz,,,T(C),rate,,track,tilt,roll
0,1405350502,mins,,-1000,-1000,-1000,,,,,0,,,,-2000,-2000,-2000,,0,,,-2000,,-2000,-2000,-2000,,0,,0,,-180,-180
0,1405350502,maxs,,,1000,,1000,,1000,,,,1000,,,2000,,2000,,2000,2000,,2000,,,2000,,2000,,2000,,37000,360,180,180
0,1405350502,attr,,,,,F,,,,,F,,,,,F,,,,,,F,,,,,,F,,,,,F,,,,F,,,,,F,,,,,F,,,,,,F,,,,,F,,,,,F,,,,,I,F,F,F
0,1405350503,2336,4.77064,3.27217,-8.07339,9.93206,-1.42531,-0.09898,0.600479,1.5498,0.521739,0.289855,-0.243478,3.81111,0,0,0,0
0,1405350504,3636,29.3398,19.9306,-48.9718,60.4672,-8.58545,-0.523987,3.55368,9.30662,3.46581,4.99017,-2.48419,37.9459,4,0,0,0
0,1405350505,4641,29.2902,20.3412,-49.3059,60.8502,-8.59015,-0.559673,3.58394,9.32462,4.07277,5.11749,-1.76147,37.9818,6,0,0,0
0,1405350506,5644,29.2732,20.2886,-48.738,60.365,-8.5986,-0.548093,3.55591,9.32099,2.21859,4.2596,-1.98097,37.9401,7,0,0,0
0,1405350507,6654,29.5585,20.4338,-48.8669,60.6566,-8.60184,-0.565534,3.55668,9.32531,0.530051,3.97082,-2.72565,37.995,7,0,0,0
0,1405350508,7655,29.773,20.1557,-49.0427,60.8102,-8.61615,-0.601521,3.529,9.33026,1.63922,3.75317,-2.54269,38.0423,6,0,0,0
0,1405350509,8663,29.5511,20.4299,-49.2517,60.9621,-8.62158,-0.584692,3.51711,9.32972,2.35037,4.10923,-1.6048,37.8224,7,0,0,0
0,1405350510,9668,29.7996,20.1604,-48.5904,60.4606,-8.61063,-0.495991,3.54879,9.32646,0.793866,5.26863,-0.507799,37.847,6,0,0,0
0,1405350511,10672,29.1266,20.1459,-49.2092,60.6281,-8.58455,-0.594595,3.55695,9.31128,0.718268,6.6179,-1.7571,37.9182,7,0,0,0
0,1405350512,11681,29.7328,20.3829,-48.8681,60.7256,-8.63577,-0.545041,3.48577,9.32868,1.19572,3.62979,-2.7691,37.8421,7,0,0,0
0,1405350513,12688,29.5907,19.7456,-48.8544,60.4339,-8.57162,-0.558225,3.57928,9.30567,2.58295,4.31185,-1.29372,37.9071,7,0,0,0
0,1405350514,13699,29.3955,19.9538,-48.8388,60.3944,-8.58881,-0.522974,3.55588,9.3105,2.55589,5.11479,-1.37993,37.8771,6,0,0,0
0,1405350515,14708,29.5959,19.7931,-49.0215,60.5871,-8.59226,-0.625036,3.60004,9.33691,1.75181,5.00742,-2.08884,38.0443,6,0,0,0
0,1405350516,15716,29.683,20.3764,-49.4041,61.1314,-8.56281,-0.59089,3.54845,9.28776,0.666382,3.80563,-1.43171,37.8969,6,0,0,0
0,1405350517,16721,29.6672,20.0616,-48.7669,60.5047,-8.60212,-0.505785,3.54422,9.31739,2.29871,6.60946,-1.35612,37.89,7,0,0,0
0,1405350518,17722,29.4936,19.836,-49.1632,60.666,-8.59409,-0.542661,3.54195,9.31119,1.98832,3.64069,-1.16941,37.8608,6,0,0,0
0,1405350519,18912,29.2788,19.4689,-48.8914,60.2217,-8.58889,-0.672324,3.55121,9.31837,-0.00341033,5.01972,-0.760821,37.8494,2,0,0,0
0,1405350520,19918,29.2543,19.9937,-49.0716,60.5276,-8.58132,-0.532616,3.56901,9.30917,0.812508,5.43455,-1.04966,37.8333,7,0,0,0
0,1405350521,20922,29.6099,20.1172,-49.1216,60.7814,-8.63688,-0.525944,3.54364,9.35038,0.569045,4.39912,-1.1413,37.8072,7,0,0,0
0,1405350522,21929,29.8155,20.0532,-49.1204,60.8598,-8.59211,-0.57939,3.54687,9.31345,1.38302,5.43999,-1.31038,37.83,7,0,0,0
0,1405350523,22934,29.0673,19.9647,-49.0153,60.3821,-8.59546,-0.553066,3.56928,9.3235,0.492569,4.44018,-0.838261,37.8732,6,0,0,0
0,1405350524,23935,29.6537,20.2218,-48.8465,60.6155,-8.6114,-0.576031,3.58625,9.34608,0.0138139,4.96269,-0.762431,37.8802,6,0,0,0
0,1405350525,24940,29.5132,19.6563,-49.1725,60.6245,-8.60273,-0.671948,3.58955,9.34577,0.0762804,4.77413,0.190267,37.8797,5,0,0,0
0,1405350526,25950,29.4765,20.0202,-49.0139,60.5973,-8.60424,-0.581699,3.51806,9.31387,3.46011,4.90471,-1.71362,38.0013,7,0,0,0
0,1405350527,26954,29.438,19.9936,-48.8302,60.4213,-8.58627,-0.589186,3.5759,9.31978,3.61195,5.00875,-0.783038,38.0153,5,0,0,0
0,1405350528,27959,29.363,20.5875,-48.9213,60.6575,-8.5935,-0.568574,3.59181,9.33127,2.39653,3.73419,-1.62865,38.1184,7,0,0,0
0,1405350530,29399,29.2044,20.0639,-49.0714,60.5266,-8.60965,-0.560904,3.58565,9.34332,0.531722,5.01561,-1.2261,37.9272,1,0,0,0
0,1405350531,30402,30.0035,20.1083,-49.1214,60.971,-8.59945,-0.562909,3.5677,9.32716,2.98111,4.15082,-1.31506,38.1042,6,0,0,0
0,1405350532,31406,29.2832,20.2925,-49.0285,60.606,-8.60344,-0.551846,3.58182,9.33559,3.35966,3.81384,-1.21916,38.1335,6,0,0,0
0,1405350533,32409,29.5431,20.0077,-49.1289,60.7187,-8.59819,-0.550861,3.58043,9.33015,3.36933,3.72198,-2.11285,38.1388,6,0,0,0
0,1405350534,33411,28.9784,19.7952,-49.0572,60.3175,-8.62073,-0.554379,3.58761,9.35389,0.777388,4.25186,-0.415321,38.0515,7,0,0,0
0,1405350535,34414,29.0863,19.6084,-48.9003,60.1809,-8.59384,-0.561642,3.56884,9.32234,0.805967,5.67196,-1.11718,38.0706,4,0,0,0
0,1405350536,35415,29.6408,20.2624,-48.8728,60.644,-8.5885,-0.560374,3.54752,9.3092,2.36009,4.61273,-0.755247,38.1268,7,0,0,0
0,1405350537,36417,29.6015,19.7571,-48.8308,60.4238,-8.61012,-0.486262,3.58452,9.33913,0.570536,3.93746,-0.692042,38.1005,6,0,0,0
0,1405350538,37424,29.5915,19.8939,-48.9307,60.5445,-8.59175,-0.533374,3.59668,9.32945,2.21549,4.42304,0.0251169,38.1771,6,0,0,0
0,1405350539,38427,29.2106,20.5151,-49.1791,60.7677,-8.59505,-0.549775,3.60312,9.33593,3.61063,3.88131,-0.116426,38.0924,6,0,0,0
0,1405350540,39694,29.3846,20.139,-49.0955,60.658,-8.608,-0.441072,3.58015,9.33326,1.81213,4.71538,-1.35641,38.1105,5,0,0,0
0,1405350541,40700,29.4849,20.1298,-49.1886,60.779,-8.64495,-0.588863,3.53288,9.35752,0.494993,3.3318,-0.847633,38.1045,6,0,0,0
0,1405350542,41708,30.0209,19.8757,-49.1958,60.9633,-8.59055,-0.558807,3.56756,9.31866,1.7947,4.2936,-0.0904639,38.1782,7,0,0,0
0,1405350543,42717,29.9085,19.6703,-48.9911,60.6759,-8.63355,-0.57739,3.5459,9.3512,2.25826,4.81451,-0.746374,38.1243,5,0,0,0
0,1405350544,43724,29.9514,19.7003,-48.9039,60.6365,-8.57396,-0.495325,3.6198,9.31993,1.15272,4.60901,-1.30675,38.1805,7,0,0,0
0,1405350545,44730,29.756,20.2796,-48.9867,60.7979,-8.58452,-0.599611,3.66425,9.35309,2.16313,5.45501,-0.295634,38.1167,6,0,0,0
0,1405350546,45732,29.3468,20.0368,-49.1349,60.6379,-8.60809,-0.653342,3.48848,9.31105,3.08576,3.69887,-0.256142,38.167,7,0,0,0
0,1405350547,46737,29.629,20.3196,-49.0361,60.7891,-8.55333,-0.863849,3.58568,9.31465,1.85479,5.50824,-0.0694874,38.2714,6,0,0,0
0,1405350548,47741,29.4794,20.2663,-48.8631,60.5587,-8.61496,-0.556254,3.55364,9.3357,1.33922,4.76519,-1.32368,38.3016,6,0,0,0
0,1405350549,48743,29.4258,20.0882,-49.2507,60.7869,-8.59368,-0.55925,3.58596,9.32862,2.31717,4.75415,-1.35512,38.2693,6,0,0,0
0,1405350550,49748,29.4479,19.7545,-48.9692,60.4599,-8.59568,-0.562534,3.57643,9.32701,2.5181,4.06353,-0.423563,38.2693,7,0,0,0
0,1405350551,50750,29.549,19.8754,-48.8347,60.4401,-8.63351,-0.56552,3.56067,9.35605,3.2793,4.23267,-0.943486,38.2007,7,0,0,0
0,1405350552,51753,29.3522,20.2505,-48.9092,60.5289,-8.6073,-0.60018,3.56257,9.33476,2.11037,4.51602,-1.10528,38.2334,7,0,0,0
0,1405350553,52763,29.3698,20.3676,-49.1687,60.7864,-8.59556,-0.55996,3.58535,9.33017,1.59371,5.65698,-1.25819,38.3018,7,0,0,0
0,1405350554,53771,28.9888,20.0418,-48.7671,60.1686,-8.58227,-0.579776,3.5943,9.32258,1.76009,4.94487,-2.92046,38.2752,6,0,0,0
0,1405350556,55708,29.1708,19.8299,-48.9729,60.3532,-8.57395,-0.581774,3.55397,9.29956,0.59457,4.70327,-1.10312,38.2751,2,0,0,0
0,1405350557,56709,29.6212,19.9087,-49.0545,60.664,-8.5839,-0.559933,3.56387,9.31118,0.37255,4.33972,-0.742627,38.2935,7,0,0,0
0,1405350558,57717,29.3851,20.4209,-49.2985,60.9167,-8.60683,-0.547458,3.61576,9.35152,3.00961,4.00503,-0.805986,38.3439,7,0,0,0
0,1405350559,58726,29.4551,19.8442,-48.8918,60.4302,-8.59351,-0.606477,3.52479,9.30808,0.976174,4.93889,-2.2459,38.3463,5,0,0,0
0,1405350561,60781,29.4057,20.4219,-49.2013,60.8483,-8.58573,-0.615191,3.53895,9.30685,2.48813,3.4338,-0.435402,38.3466,4,0,0,0
0,1405350562,61786,28.9465,19.8102,-48.7217,60.0345,-8.59765,-0.583832,3.56794,9.32687,1.23959,4.15795,-0.180924,38.2203,5,0,0,0
0,1405350563,62788,29.6905,19.6611,-49.0354,60.6016,-8.60552,-0.561189,3.60089,9.34539,1.61019,4.69168,-1.43832,38.252,7,0,0,0
0,1405350564,63797,29.403,20.1872,-49.1628,60.7375,-8.55837,-0.630872,3.6029,9.30723,0.815233,4.68127,-1.26155,38.2335,7,0,0,0
0,1405350565,64803,29.1715,19.8835,-49.4042,60.7216,-8.60077,-0.575158,3.59286,9.33878,1.11072,4.15146,-2.15845,38.1966,7,0,0,0
0,1405350566,65810,29.2102,19.9658,-48.8489,60.3165,-8.5722,-0.564655,3.56383,9.30067,2.21484,4.77855,-2.25631,38.1902,6,0,0,0
0,1405350567,66816,29.3002,20.0931,-48.8623,60.4132,-8.58188,-0.559516,3.58536,9.31754,1.29519,5.30802,-1.78634,38.2527,6,0,0,0
0,1405350568,67823,29.2061,19.8353,-49.0508,60.4353,-8.60826,-0.574932,3.54329,9.32671,1.68267,4.40442,-0.522338,38.2755,6,0,0,0
0,1405350569,68829,29.3913,20.0394,-49.0215,60.5684,-8.5853,-0.581104,3.56431,9.31394,1.07721,4.31979,-2.14581,38.3033,6,0,0,0
0,1405350570,69830,29.394,20.2395,-48.8989,60.5371,-8.57264,-0.614534,3.57861,9.3099,2.30571,5.08148,-1.88559,38.1626,6,0,0,0
0,1405350571,70839,29.1563,20.3193,-48.8107,60.3776,-8.57768,-0.540154,3.59855,9.31761,1.70835,4.25029,0.603939,38.0995,7,0,0,0
0,1405350572,71847,29.6236,20.4106,-49.1517,60.9101,-8.56526,-0.719833,3.56597,9.3058,1.20382,4.99312,-1.09873,38.0772,6,0,0,0
0,1405350573,72850,29.3404,20.2088,-48.8803,60.4858,-8.59582,-0.534885,3.53176,9.30847,2.49712,4.66022,-0.716357,38.0733,6,0,0,0
0,1405350574,73862,29.8275,19.9384,-49.099,60.8107,-8.59291,-0.524833,3.57517,9.32177,1.06267,4.62319,-0.962712,38.077,6,0,0,0
0,1405350576,75958,29.4848,19.904,-49.0263,60.5731,-8.58092,-0.563737,3.56632,9.3096,-0.470642,4.71135,-0.64383,38.1828,5,0,0,0
0,1405350577,76966,29.3713,20.0196,-48.7991,60.3723,-8.61133,-0.551766,3.55973,9.33441,0.206995,4.42619,-0.489624,38.0715,7,0,0,0
0,1405350578,77968,29.4249,20.0116,-49.1879,60.7103,-8.57287,-0.556034,3.56342,9.30061,3.30761,4.12436,-0.519151,38.0765,7,0,0,0
0,1405350579,78970,29.2238,20.0499,-49.1579,60.6013,-8.60733,-0.58048,3.58198,9.34096,2.60569,5.53851,-1.23612,37.9512,7,0,0,0
0,1405350580,79973,29.6158,20.1692,-49.3337,60.9729,-8.59469,-0.587595,3.59724,9.33563,1.23361,4.21293,-0.318359,38.0475,7,0,0,0
0,1405350581,80975,29.4525,19.6936,-48.8349,60.3335,-8.62408,-0.569629,3.50494,9.32651,0.66354,4.86649,-0.101277,38.0356,6,0,0,0
0,1405350582,81979,29.4939,20.5072,-49.3266,61.0209,-8.61001,-0.632474,3.5227,9.32425,0.921031,4.92878,-1.82907,38.0891,6,0,0,0
0,1405350583,82980,29.2359,20.1556,-49.0301,60.5388,-8.61022,-0.550467,3.53392,9.32349,2.42023,3.64771,-0.932743,38.0145,7,0,0,0
0,1405350584,83983,29.4675,19.9796,-48.8568,60.4525,-8.58554,-0.562676,3.61557,9.33277,2.97031,5.06702,-2.73865,37.9944,6,0,0,0
0,1405350585,84984,29.5214,19.6621,-49.0871,60.5611,-8.58412,-0.503235,3.52011,9.29148,1.44452,4.25175,-1.2928,37.9881,7,0,0,0
0,1405350586,85989,29.5553,19.6581,-48.558,60.1485,-8.58115,-0.621082,3.59697,9.32523,1.19948,4.39337,-0.797274,38.2214,7,0,0,0
0,1405350587,86994,29.2921,19.8803,-49.0402,60.483,-8.62204,-0.56041,3.56662,9.34743,1.1807,4.86925,-1.03132,38.1831,7,0,0,0
0,1405350588,87995,29.5729,20.5261,-49.1068,60.8881,-8.56959,-0.563937,3.58253,9.3054,1.57512,4.84374,-0.90668,38.0036,7,0,0,0
0,1405350589,88997,29.4169,20.2492,-48.9149,60.5645,-8.60894,-0.59125,3.52299,9.32067,2.68209,4.41965,-0.636759,38.0523,7,0,0,0
0,1405350591,90000,29.4352,20.0623,-48.7789,60.4012,-8.60179,-0.555252,3.56882,9.32929,2.67178,5.40345,-1.50589,38.0846,7,0,0,0
0,1405350592,91221,29.4682,19.9449,-48.8448,60.4317,-8.59347,-0.548493,3.5679,9.32086,2.06417,5.32606,-1.23172,38.114,2,0,0,0
0,1405350593,92229,29.2442,20.1478,-49.0892,60.588,-8.62971,-0.637657,3.53357,9.34691,1.36451,3.54838,-1.29509,38.0955,7,0,0,0
0,1405350594,93236,29.5589,19.8455,-49.286,60.8003,-8.59815,-0.500593,3.58108,9.32754,1.70469,4.982,-1.80262,38.182,7,0,0,0
0,1405350595,94242,29.413,20.1545,-48.6844,60.3448,-8.5884,-0.528281,3.5704,9.31598,1.94836,4.42766,-1.64057,38.1215,6,0,0,0
0,1405350596,95245,29.1278,19.771,-48.9029,60.2562,-8.58817,-0.582862,3.58869,9.32604,2.16708,4.85688,-1.04913,38.1246,7,0,0,0
0,1405350597,96247,29.6172,20.0148,-48.9627,60.6227,-8.57261,-0.571679,3.56882,9.30338,0.532567,4.57458,-1.42182,38.122,6,0,0,0
0,1405350598,97248,29.4668,20.3952,-48.9296,60.6495,-8.60305,-0.534926,3.56218,9.32672,2.78103,3.37862,-1.49259,38.2141,7,0,0,0
0,1405350599,98251,29.4616,20.1124,-48.9637,60.58,-8.59293,-0.540294,3.57579,9.3229,3.40618,5.02021,-1.30997,38.1246,6,0,0,0
0,1405350600,99261,29.8864,19.8551,-49.1393,60.8449,-8.59172,-0.543751,3.58618,9.32599,1.45296,3.87698,-1.14321,38.3153,6,0,0,0
0,1405350601,100266,29.6023,19.869,-49.0203,60.614,-8.5917,-0.561566,3.5411,9.30979,1.42748,4.34342,-1.40045,38.1733,7,0,0,0
0,1405350602,101267,29.535,20.2005,-49.0299,60.6985,-8.62445,-0.593129,3.56177,9.34982,2.55358,3.75013,-1.91498,38.3146,7,0,0,0
0,1405350603,102268,29.7266,19.5843,-48.7217,60.3409,-8.5975,-0.543944,3.5297,9.30976,2.13252,4.29767,-0.358944,38.3204,7,0,0,0
0,1405350604,103272,29.7785,19.4656,-48.9052,60.4764,-8.63552,-0.618629,3.54922,9.35691,1.85999,6.24094,-0.827335,38.3561,7,0,0,0
0,1405350605,104279,29.7198,19.5438,-48.7928,60.3818,-8.61447,-0.659325,3.57847,9.35143,3.23744,4.48105,-1.08472,38.4462,7,0,0,0
0,1405350606,105282,29.6461,20.0169,-49.1889,60.8203,-8.59817,-0.432062,3.6582,9.35401,3.33404,5.0775,-0.364337,38.3746,7,0,0,0
0,1405350607,106289,29.5401,19.7606,-49.1782,60.6762,-8.50689,-0.54891,3.78361,9.32653,3.16793,5.79773,-1.25134,38.4314,6,0,0,0
0,1405350608,107294,29.597,19.9673,-48.8947,60.5422,-8.50286,-0.570393,3.7271,9.30136,2.9289,4.83476,-1.13365,38.5179,7,0,0,0
0,1405350609,108296,29.4585,20.2546,-49.2385,60.8481,-8.57152,-0.539374,3.60993,9.31631,3.68016,5.37841,-1.36073,38.4963,6,0,0,0
0,1405350610,109302,29.4411,19.9617,-48.5837,60.2132,-8.58776,-0.52557,3.58932,9.32251,2.1079,5.23551,-1.16584,38.5737,7,0,0,0
0,1405350611,110308,29.4124,20.1096,-48.9873,60.5743,-8.57472,-0.518539,3.61591,9.32038,-0.997983,4.47204,-1.1676,38.4498,7,0,0,0
0,1405350612,111315,29.776,19.9459,-49.0485,60.747,-8.58417,-0.522136,3.56699,9.31043,0.0197244,3.77483,-0.840495,38.6075,7,0,0,0
0,1405350613,112318,29.4908,19.731,-48.9353,60.4457,-8.59972,-0.53766,3.57904,9.33026,0.0627671,5.30439,-0.960178,38.6309,7,0,0,0
0,1405350614,113327,29.4945,20.2075,-49.2139,60.8299,-8.58724,-0.437537,3.55929,9.30595,1.10627,4.82951,-1.39419,38.5892,6,0,0,0
0,1405350615,114332,29.5551,20.1361,-48.746,60.4577,-8.56867,-0.442002,3.63581,9.31862,2.96676,4.74164,0.0463704,38.6748,6,0,0,0
0,1405350617,116417,29.8007,20.323,-49.1026,60.9276,-8.4831,-0.545233,3.72756,9.28197,2.4127,5.27415,-1.26109,38.6615,4,0,0,0
0,1405350618,117424,29.2608,19.9176,-49.0217,60.4651,-8.63121,-0.521605,3.54464,9.34529,0.373399,6.47537,-1.30828,38.8361,7,0,0,0
0,1405350619,118431,29.7371,19.6185,-49.1609,60.7122,-8.61304,-0.545024,3.52378,9.32194,1.51576,4.00046,-1.51655,38.6762,6,0,0,0
0,1405350620,119432,29.8205,19.5483,-49.0202,60.6166,-8.5925,-0.51241,3.56562,9.31704,1.05354,4.54886,-1.39044,38.895,6,0,0,0
0,1405350621,120439,29.4856,20.4121,-48.7314,60.5046,-8.57685,-0.55577,3.60233,9.31923,0.791681,4.19947,-0.818873,38.7755,7,0,0,0
0,1405350622,121446,29.5771,19.8364,-48.7954,60.4092,-8.59669,-0.525419,3.58803,9.33022,0.320819,3.78389,-0.92695,38.9111,6,0,0,0
0,1405350623,122448,29.6056,20.1525,-49.0646,60.745,-8.58933,-0.581097,3.59677,9.33011,0.922343,6.89229,-1.58258,38.9963,7,0,0,0
0,1405350624,123452,29.6227,20.4023,-49.2083,60.9525,-8.62482,-0.508819,3.57321,9.34956,0.53359,4.70103,-1.66537,38.9549,6,0,0,0
0,1405350625,124459,29.5491,19.9794,-48.8393,60.4781,-8.58825,-0.507333,3.56739,9.31353,2.47684,4.37372,-1.75564,38.8981,7,0,0,0
0,1405350626,125465,29.5746,19.72,-48.5274,60.1535,-8.58048,-0.512545,3.58248,9.31244,2.99226,4.85894,-0.935741,38.9682,6,0,0,0
0,1405350627,126467,29.7275,19.6521,-48.9894,60.5796,-8.58518,-0.546116,3.58241,9.31865,2.22421,5.32422,-1.73633,38.8956,6,0,0,0
0,1405350628,127477,29.4799,20.0495,-49.1132,60.689,-8.60744,-0.546061,3.57737,9.33723,2.41251,5.05798,-0.733166,39.0586,6,0,0,0
0,1405350629,128486,29.4396,19.9035,-49.1253,60.6311,-8.57539,-0.527011,3.56372,9.30135,2.32253,5.11586,-2.03853,39.0247,5,0,0,0
0,1405350630,129495,29.2623,19.9557,-49.0988,60.5409,-8.60121,-0.594864,3.58729,9.33828,1.9594,4.5956,-0.773205,39.0802,6,0,0,0
0,1405350631,130503,29.2943,20.308,-48.9711,60.5701,-8.60298,-0.539848,3.52446,9.3126,0.21151,4.85491,-1.36991,39.1211,5,0,0,0
0,1405350632,131511,29.589,19.9475,-49.0314,60.6423,-8.57339,-0.547118,3.58564,9.30909,2.48299,4.962,-0.886346,39.1632,7,0,0,0
0,1405350633,132513,29.3574,19.8664,-48.6929,60.2289,-8.59208,-0.560646,3.56947,9.32091,-0.35494,4.03126,-1.15005,39.0354,7,0,0,0
0,1405350634,133525,29.5386,20.0936,-49.074,60.7004,-8.56989,-0.528792,3.57729,9.30159,1.04074,4.37054,-1.15661,39.0878,7,0,0,0
0,1405350635,134538,29.3313,19.7465,-48.9056,60.3491,-8.58127,-0.522716,3.54343,9.29878,0.839709,4.66333,-1.21858,39.253,7,0,0,0
0,1405350636,135544,29.1234,20.1122,-48.7053,60.207,-8.60607,-0.521543,3.57357,9.3331,1.11337,5.20113,-1.14787,39.1228,3,0,0,0
0,1405350637,136552,29.4358,19.8293,-49.0441,60.5392,-8.61135,-0.556691,3.50039,9.31225,3.94544,4.6521,-1.06804,39.3157,7,0,0,0
0,1405350638,137554,29.3144,19.7694,-49.2677,60.6422,-8.58196,-0.529985,3.58789,9.31686,1.40626,5.25213,-1.05259,39.0812,7,0,0,0
0,1405350639,138560,29.6373,19.5366,-48.6464,60.2206,-8.60674,-0.467441,3.55947,9.32547,2.43332,4.40681,-1.69985,39.2582,6,0,0,0
0,1405350640,139572,29.1628,19.8359,-48.7019,60.1316,-8.61971,-0.548252,3.51584,9.32529,0.808298,4.70177,-0.845217,39.3185,6,0,0,0
0,1405350641,140581,28.983,19.7128,-48.8908,60.1575,-8.57548,-0.564668,3.56302,9.30338,2.81858,4.50136,-1.37092,39.1675,6,0,0,0
0,1405350642,141582,29.3138,19.5481,-48.8434,60.2254,-8.59609,-0.586012,3.5082,9.30289,1.39923,4.88111,-0.266261,39.2287,7,0,0,0
0,1405350643,142583,29.7556,19.3795,-48.6636,60.2421,-8.60066,-0.528027,3.58008,9.33098,1.08273,3.61973,-0.349198,39.2448,7,0,0,0
0,1405350644,143585,29.6856,20.1032,-48.6661,60.4464,-8.56848,-0.567358,3.59152,9.30805,2.87057,4.79359,-1.30915,39.3332,7,0,0,0
0,1405350645,144593,29.538,19.509,-48.8666,60.341,-8.60214,-0.554269,3.57205,9.33078,0.644776,4.96802,-1.98993,39.1659,6,0,0,0
0,1405350646,145594,29.2247,19.9009,-49.0092,60.4321,-8.58854,-0.514782,3.57171,9.31585,2.38437,4.03772,-0.921955,39.2196,7,0,0,0
0,1405350647,146596,29.377,20.2401,-49.1088,60.6988,-8.57952,-0.546825,3.58197,9.3133,0.684221,4.54284,-1.69536,39.3134,6,0,0,0
0,1405350648,147600,29.783,19.5426,-48.7362,60.3669,-8.59793,-0.551993,3.59776,9.33665,1.0559,4.82732,-1.27739,39.3185,7,0,0,0
0,1405350649,148604,29.4838,19.8968,-48.9336,60.4953,-8.60104,-0.506976,3.57034,9.32643,0.586297,4.50011,-0.450599,39.3211,7,0,0,0
0,1405350650,149606,29.4794,20.1898,-48.8405,60.5149,-8.59071,-0.554707,3.56379,9.31712,1.48378,5.28588,-1.10775,39.2186,6,0,0,0
0,1405350652,151246,29.6151,19.748,-48.7686,60.3773,-8.57843,-0.515917,3.56811,9.30522,2.54288,4.09139,-1.05227,39.3124,1,0,0,0
0,1405350653,152248,29.2952,20.0677,-49.1315,60.6203,-8.60296,-0.544142,3.56704,9.32903,3.25969,4.38557,-1.10138,39.2067,6,0,0,0
0,1405350654,153256,29.1086,20.0436,-48.8217,60.2712,-8.62272,-0.502376,3.55704,9.3411,0.167511,4.96766,-1.21616,39.2074,7,0,0,0
0,1405350655,154259,29.5022,20.2339,-48.7633,60.4785,-8.61892,-0.455851,3.55055,9.33274,2.46724,4.36174,-0.674075,39.2419,5,0,0,0
0,1405350656,155268,29.3068,19.9455,-48.893,60.3923,-8.5698,-0.550738,3.56363,9.29754,1.4631,5.11491,-1.46659,39.2315,7,0,0,0
0,1405350657,156272,29.3664,19.9996,-49.0468,60.5636,-8.5958,-0.525709,3.54805,9.31411,0.800259,5.48709,-1.91383,39.2386,7,0,0,0
0,1405350658,157278,29.555,19.9789,-48.7516,60.4101,-8.59348,-0.538227,3.56969,9.32096,2.28187,3.78846,-2.01317,39.2284,6,0,0,0
0,1405350659,158287,29.3958,20.0704,-48.9171,60.4964,-8.58018,-0.517107,3.57043,9.30779,2.27557,4.63706,-1.89292,39.265,7,0,0,0
0,1405350660,159292,29.7128,19.9793,-48.6521,60.4074,-8.59165,-0.526948,3.59766,9.32938,1.8655,4.81635,-1.13141,39.2051,6,0,0,0
0,1405350661,160301,29.6445,19.5478,-48.8773,60.4144,-8.57877,-0.528701,3.55365,9.30071,0.810004,5.13531,-1.89119,39.2728,6,0,0,0
0,1405350662,161311,29.667,19.7414,-48.5395,60.2158,-8.57971,-0.551432,3.5715,9.30973,1.25233,3.99979,-0.791099,39.3723,7,0,0,0
0,1405350663,162314,29.7478,19.6068,-48.9577,60.5493,-8.63098,-0.482255,3.58845,9.35966,3.17603,4.57073,-1.87676,39.297,6,0,0,0
0,1405350664,163322,29.6293,20.4452,-49.0333,60.829,-8.56413,-0.521589,3.58837,9.30015,0.617624,4.53681,-0.919081,39.3417,7,0,0,0
0,1405350665,164329,29.7858,19.8,-48.9143,60.5957,-8.53593,-0.561746,3.61495,9.28685,3.10884,5.02915,-0.802321,39.3179,7,0,0,0
0,1405350666,165336,29.8289,20.1933,-49.1037,60.8992,-8.58228,-0.508554,3.5922,9.31762,1.36221,4.64956,-2.76022,39.4553,7,0,0,0
0,1405350667,166342,29.9002,19.8435,-48.9532,60.6976,-8.59344,-0.551413,3.59722,9.33227,1.0974,5.27199,-1.67852,39.3577,7,0,0,0
0,1405350668,167351,29.5169,20.1488,-48.682,60.3917,-8.56972,-0.565434,3.59331,9.30976,1.20998,4.98467,-1.49944,39.3784,7,0,0,0
0,1405350669,168356,29.7422,19.3804,-48.8761,60.4076,-8.58844,-0.672705,3.59031,9.33296,2.50561,4.45003,-0.655991,39.414,5,0,0,0
0,1405350670,169357,29.77,19.7819,-48.8303,60.5142,-8.58568,-0.560467,3.54055,9.30395,1.40837,4.49363,-1.73839,39.39,7,0,0,0
0,1405350671,170363,29.315,20.1139,-49.0375,60.5691,-8.59052,-0.49958,3.57969,9.31991,1.70504,4.73759,-0.461868,39.5599,7,0,0,0
0,1405350672,171364,29.3707,19.8135,-48.9394,60.4176,-8.58475,-0.543347,3.55067,9.30594,2.52664,6.34195,-1.78938,39.5837,7,0,0,0
0,1405350673,172371,29.7174,19.9173,-48.7092,60.4351,-8.58728,-0.5488,3.55553,9.31044,0.319294,5.00807,-1.13682,39.5694,6,0,0,0
0,1405350674,173379,29.628,19.8947,-48.9145,60.5495,-8.5886,-0.543899,3.56923,9.31661,2.77836,4.31424,-0.888206,39.5138,6,0,0,0
0,1405350675,174383,29.5985,19.6851,-48.8978,60.453,-8.57442,-0.547741,3.58442,9.3096,0.988654,3.10302,-0.789404,39.5754,6,0,0,0
0,1405350676,175386,29.6989,20.314,-49.1899,60.9453,-8.60136,-0.562478,3.55623,9.32452,0.0835334,4.57072,-1.46571,39.4282,7,0,0,0
0,1405350677,176388,29.3346,20.0215,-49.018,60.5322,-8.60928,-0.522923,3.55772,9.33009,1.85431,5.26603,-0.763616,39.4208,7,0,0,0
0,1405350678,177395,29.3482,20.1897,-48.8655,60.4713,-8.59568,-0.535258,3.56883,9.32249,0.530921,6.13682,-1.29634,39.3312,7,0,0,0
0,1405350679,178401,29.7691,19.6354,-48.8519,60.4835,-8.5958,-0.525212,3.58366,9.32771,1.66401,4.35361,-3.04062,39.4594,6,0,0,0
0,1405350680,179405,29.4334,19.9765,-48.9156,60.4824,-8.59026,-0.546442,3.55592,9.3132,0.692308,3.72283,-1.14406,39.3243,7,0,0,0
0,1405350681,180406,29.3423,19.7202,-49.0906,60.4958,-8.61571,-0.524902,3.57419,9.34242,1.56096,6.10273,-1.97731,39.3533,6,0,0,0
0,1405350682,181410,29.9343,19.4021,-48.6893,60.3585,-8.59709,-0.542527,3.57631,9.32707,2.10966,4.37684,-0.788728,39.3439,7,0,0,0
0,1405350683,182411,29.6919,20.0423,-48.7443,60.4922,-8.58123,-0.544598,3.55399,9.30403,1.28012,5.05998,-1.3923,39.3252,6,0,0,0
0,1405350684,183418,29.6703,20.274,-48.7504,60.5637,-8.59499,-0.542305,3.56223,9.31974,2.7111,5.44219,-1.1767,39.302,6,0,0,0
0,1405350685,184424,29.2615,20.0276,-48.8716,60.3802,-8.5863,-0.542458,3.55215,9.30788,2.09023,4.95234,-0.584147,39.2827,7,0,0,0
0,1405350686,185433,29.7299,19.5258,-49.0392,60.5803,-8.60965,-0.534598,3.56198,9.33271,1.60685,4.88834,-1.26394,39.3831,6,0,0,0
0,1405350687,186435,29.538,20.0225,-48.5836,60.2807,-8.57825,-0.549061,3.55763,9.30293,1.33987,5.32731,-2.17827,39.286,7,0,0,0
0,1405350688,187445,29.584,19.9326,-48.8742,60.508,-8.59475,-0.53919,3.58763,9.32907,3.17831,4.65086,-1.08227,39.4231,8,0,0,0
0,1405350689,188457,29.4773,20.1183,-48.6824,60.3625,-8.58114,-0.517358,3.56439,9.30637,1.35648,3.8655,-0.417256,39.3405,6,0,0,0
0,1405350690,189465,29.8316,19.6964,-48.8306,60.5169,-8.58583,-0.549332,3.5497,9.30691,2.0373,4.1539,-1.54673,39.3134,7,0,0,0
0,1405350691,190473,29.7365,19.905,-49.0559,60.7203,-8.58493,-0.515173,3.57421,9.31351,0.561916,5.5492,-0.388152,39.3611,5,0,0,0
0,1405350692,191476,29.4468,20.1535,-48.6654,60.3457,-8.57592,-0.550443,3.57699,9.30829,1.08613,5.06387,0.0266917,39.4093,7,0,0,0
0,1405350693,192483,29.4729,19.8303,-49.027,60.5437,-8.59858,-0.533273,3.57591,9.32776,0.296119,4.66089,-1.42128,39.43,8,0,0,0
0,1405350694,193485,29.6143,19.828,-48.6751,60.3276,-8.58965,-0.535057,3.57571,9.31955,0.778117,4.08698,-1.19671,39.4702,7,0,0,0
0,1405350695,194499,29.4428,20.021,-48.4973,60.164,-8.60345,-0.535734,3.58479,9.33579,1.4848,4.70562,-1.10677,39.4224,6,0,0,0
0,1405350696,195505,29.6977,19.7805,-48.7386,60.4043,-8.59777,-0.559433,3.57684,9.3289,1.37404,5.32379,-0.546909,39.5326,6,0,0,0
0,1405350697,196511,29.4881,19.9647,-49.1716,60.7123,-8.59852,-0.541682,3.56453,9.32384,1.97609,5.19666,-1.21174,39.471,7,0,0,0
0,1405350698,197515,29.5365,19.8664,-49.2919,60.801,-8.58873,-0.551728,3.57834,9.32069,1.07484,4.22567,-1.81222,39.5422,6,0,0,0
0,1405350699,198525,29.5808,20.1648,-49.2479,60.8851,-8.59606,-0.544915,3.56617,9.32238,1.47605,4.90545,-1.41496,39.6015,7,0,0,0
0,1405350700,199528,29.451,19.9087,-48.9187,60.4711,-8.59871,-0.554137,3.54721,9.31813,1.20069,5.98655,-0.565237,39.5006,7,0,0,0
0,1405350701,200534,29.6438,19.7311,-49.0168,60.5865,-8.59608,-0.52738,3.55928,9.31876,2.08902,4.78302,-0.782027,39.4206,7,0,0,0
0,1405350702,201536,29.4374,19.7511,-49.0914,60.5528,-8.57905,-0.549266,3.54902,9.3004,2.51807,5.21146,-1.37372,39.5033,6,0,0,0
0,1405350703,202540,29.5394,19.9676,-48.9924,60.5932,-8.58734,-0.554041,3.56444,9.31422,3.34323,4.19846,-1.16283,39.4284,6,0,0,0
0,1405350704,203545,29.2389,19.9418,-49.0229,60.4634,-8.58807,-0.548951,3.53196,9.3022,1.35398,4.71517,-1.1343,39.4034,7,0,0,0
0,1405350705,204546,29.6191,19.8365,-48.9568,60.5603,-8.60167,-0.532924,3.58437,9.33383,1.55383,4.18903,-1.26634,39.401,5,0,0,0
0,1405350706,205551,29.5187,20.0988,-48.8077,60.4773,-8.59325,-0.524353,3.57222,9.32093,2.51576,5.02275,-0.779721,39.5015,6,0,0,0
0,1405350707,206555,29.6137,19.8718,-48.9754,60.5843,-8.59964,-0.540743,3.56169,9.32373,0.71204,4.88643,-0.378159,39.425,6,0,0,0
0,1405350708,207558,29.3514,19.7849,-48.6876,60.1949,-8.5823,-0.552422,3.56156,9.30837,0.359574,4.12804,-2.11523,39.5113,6,0,0,0
0,1405350709,208565,29.4078,19.7416,-48.6785,60.2009,-8.59096,-0.544889,3.59605,9.32916,1.58667,4.09282,-1.62777,39.3613,6,0,0,0
0,1405350710,209569,29.0172,19.7025,-49.2481,60.4612,-8.60093,-0.539872,3.56664,9.32676,1.56522,4.68504,-1.5411,39.4414,7,0,0,0
0,1405350711,210582,29.6109,20.1854,-48.7439,60.4998,-8.60848,-0.555247,3.56308,9.33326,1.8065,3.43547,-2.31041,39.409,8,0,0,0
0,1405350712,211591,29.6034,20.0753,-48.6328,60.3699,-8.60415,-0.529876,3.59619,9.3405,3.03563,5.68879,-1.1231,39.4385,7,0,0,0
0,1405350713,212595,29.5952,19.8049,-48.7184,60.3456,-8.59406,-0.545029,3.56273,9.31922,1.4284,3.3827,-1.76804,39.4793,7,0,0,0
0,1405350714,213597,29.3699,19.5984,-48.7306,60.1778,-8.58334,-0.546588,3.5653,9.31041,1.84296,4.28739,-0.319917,39.468,6,0,0,0
0,1405350715,214603,29.6444,19.5615,-48.6095,60.2024,-8.60742,-0.544443,3.58209,9.33892,0.730483,4.67436,-1.37914,39.4077,6,0,0,0
0,1405350716,215615,29.4277,19.9382,-48.9023,60.4562,-8.6105,-0.53752,3.57072,9.337,2.30788,4.37566,-1.97544,39.4589,7,0,0,0
0,1405350717,216621,29.3217,19.6876,-48.7465,60.1962,-8.59149,-0.542552,3.56499,9.31758,1.87766,4.08144,-1.4021,39.4709,6,0,0,0
0,1405350718,217630,29.2798,20.0741,-49.0434,60.5436,-8.59361,-0.545512,3.58095,9.32582,2.25178,3.72836,-0.54823,39.4878,8,0,0,0
0,1405350719,218640,29.6799,19.8526,-49.2469,60.8299,-8.60443,-0.541277,3.57608,9.33368,2.59675,5.45657,-0.350524,39.5616,6,0,0,0
0,1405350720,219644,29.7078,19.6102,-48.8232,60.422,-8.60318,-0.533179,3.56785,9.32891,0.743764,4.32843,-0.886985,39.4173,6,0,0,0
0,1405350721,220646,29.5137,20.0512,-48.842,60.4868,-8.58433,-0.523655,3.59143,9.32005,0.131457,5.70647,0.0369886,39.4563,6,0,0,0
0,1405350722,221652,29.588,20.2639,-48.9171,60.6544,-8.59387,-0.535289,3.57488,9.32313,0.334413,3.43206,-1.11951,39.3287,7,0,0,0
0,1405350723,222655,29.7567,19.6543,-48.8506,60.4825,-8.60175,-0.53595,3.55099,9.32132,1.58122,5.28684,-0.963644,39.4696,7,0,0,0
0,1405350724,223658,29.4357,20.0526,-48.6903,60.3267,-8.58583,-0.54192,3.58494,9.31997,0.166291,5.63866,-1.09115,39.4855,8,0,0,0
0,1405350725,224662,29.2264,19.7332,-48.7446,60.1633,-8.59575,-0.550029,3.56945,9.32365,1.8364,5.57127,-1.60721,39.3882,6,0,0,0
0,1405350726,225670,29.54,20.1342,-48.7093,60.4201,-8.60396,-0.549156,3.562,9.32831,1.67129,4.60565,-0.894812,39.4827,7,0,0,0
0,1405350727,226678,29.6771,20.2662,-49.0036,60.7685,-8.57507,-0.533216,3.57732,9.30663,2.9368,5.29025,-0.719818,39.4582,7,0,0,0
0,1405350728,227686,29.404,19.9918,-48.9622,60.5109,-8.58721,-0.539719,3.58093,9.31958,1.33253,3.47605,-1.52815,39.3827,8,0,0,0
0,1405350729,228695,29.4204,19.8943,-48.6617,60.2437,-8.60433,-0.54456,3.57665,9.334,1.51168,5.31106,-1.68754,39.3817,6,0,0,0
0,1405350730,229699,29.1438,20.0697,-48.8976,60.3583,-8.58877,-0.552814,3.56018,9.31383,0.914741,4.36119,-1.73856,39.3369,7,0,0,0
0,1405350731,230714,29.3403,20.33,-48.9504,60.583,-8.60498,-0.516954,3.56818,9.32978,2.56273,4.33928,-0.276591,39.347,7,0,0,0
0,1405350732,231715,29.6465,20.4021,-48.9545,60.7594,-8.61932,-0.553007,3.55491,9.34002,0.0826099,3.71482,-1.54989,39.2625,6,0,0,0
0,1405350733,232718,28.9438,19.988,-48.8827,60.2228,-8.59965,-0.53298,3.59014,9.33419,1.31321,4.17647,-1.67012,39.3421,7,0,0,0
0,1405350734,233727,29.5551,19.5896,-48.9038,60.4056,-8.5895,-0.55313,3.57965,9.32198,1.99802,3.34178,-2.27752,39.2107,7,0,0,0
0,1405350735,234729,29.3773,20.3817,-48.6553,60.3803,-8.60006,-0.539516,3.59436,9.33657,0.447499,4.20165,-1.73,39.1842,6,0,0,0
0,1405350736,235735,29.2539,20.0875,-48.8024,60.3405,-8.60482,-0.5238,3.56419,9.32849,3.1086,4.19171,-1.31405,39.2921,7,0,0,0
0,1405350737,236742,29.7299,20.2517,-48.8048,60.6292,-8.60205,-0.539709,3.59989,9.34055,3.13929,4.80454,-1.21512,39.1962,7,0,0,0
0,1405350738,237749,29.8128,20.0054,-49.2312,60.9321,-8.58455,-0.551025,3.57297,9.31473,3.7127,3.63938,-1.88025,39.0745,7,0,0,0
0,1405350739,238755,29.5649,19.6742,-48.7056,60.2776,-8.60428,-0.53177,3.58356,9.33586,2.3082,4.16877,-0.48584,39.2972,6,0,0,0
0,1405350740,239758,29.6914,19.5951,-48.9788,60.5349,-8.58947,-0.542379,3.54972,9.30987,2.55377,4.58157,-1.19149,39.1785,7,0,0,0
0,1405350741,240767,29.6335,19.8881,-48.7383,60.4079,-8.59799,-0.550911,3.5691,9.32564,1.66138,4.62668,-1.38096,39.1322,6,0,0,0
0,1405350742,241771,29.3231,20.0105,-48.8092,60.354,-8.58889,-0.524082,3.5903,9.32384,0.514666,4.93142,-0.2574,39.1718,7,0,0,0
0,1405350743,242778,29.7469,19.8737,-48.9582,60.6362,-8.59516,-0.52973,3.6017,9.33433,1.79087,4.67172,-1.43031,39.1037,7,0,0,0
0,1405350744,243780,29.2857,19.7624,-48.8427,60.2811,-8.60261,-0.548426,3.58675,9.33651,0.312098,3.97233,-1.00347,39.1345,7,0,0,0
0,1405350745,244786,29.6593,19.4993,-48.4503,60.061,-8.57137,-0.547583,3.59384,9.31042,3.96066,4.39703,-1.7677,39.1649,7,0,0,0
0,1405350746,245787,29.4026,19.9389,-48.8359,60.3906,-8.60732,-0.542984,3.52703,9.31776,2.12552,4.85601,-1.25661,39.1651,6,0,0,0
0,1405350747,246791,29.533,19.6941,-49.1653,60.6406,-8.5901,-0.529708,3.57824,9.32064,-0.184827,5.96588,-1.53866,39.102,8,0,0,0
0,1405350748,247796,29.181,19.9916,-49.05,60.4739,-8.58974,-0.514169,3.58066,9.32036,1.26203,5.0415,-2.05938,39.006,6,0,0,0
0,1405350749,248805,29.5854,19.7488,-48.6735,60.2862,-8.59775,-0.552375,3.59545,9.33561,0.656816,4.53519,-1.11713,39.0016,7,0,0,0
0,1405350750,249809,29.4049,20.0846,-48.969,60.5475,-8.57515,-0.526561,3.56669,9.30224,1.5811,3.77413,-1.43877,39.073,7,0,0,0
0,1405350751,250812,29.2691,20.2326,-48.9769,60.5374,-8.59207,-0.532552,3.54363,9.30939,1.42635,5.44193,-0.834671,39.0979,7,0,0,0
0,1405350752,251813,29.6746,19.6525,-48.7767,60.3819,-8.58341,-0.563668,3.55923,9.30917,1.41027,4.48889,-1.57163,39.1585,7,0,0,0
0,1405350753,252823,29.5292,20.3866,-48.8889,60.6441,-8.60591,-0.542369,3.56188,9.32968,1.17059,4.99203,-1.30418,39.0566,7,0,0,0
0,1405350754,253828,29.6017,19.977,-48.9656,60.6051,-8.58759,-0.541232,3.57025,9.31591,1.51885,4.70043,-1.1474,39.1018,6,0,0,0
0,1405350755,254836,29.9252,20.0351,-48.9924,60.8044,-8.596,-0.547737,3.56166,9.32076,2.45793,4.56605,-2.32241,39.0903,7,0,0,0
0,1405350756,255838,29.604,20.004,-49.0086,60.6498,-8.57449,-0.546787,3.57339,9.30537,1.59152,5.44034,-1.05727,39.084,5,0,0,0
0,1405350757,256844,29.5308,19.9442,-49.0678,60.6423,-8.59977,-0.519919,3.59926,9.33708,0.82596,3.60692,-0.224596,39.0758,7,0,0,0
0,1405350758,257853,29.4931,19.9582,-48.6467,60.2883,-8.58695,-0.51322,3.5871,9.32021,0.722241,4.59518,-0.7691,39.1602,7,0,0,0
0,1405350759,258856,29.5387,20.0717,-48.6506,60.3514,-8.59709,-0.53481,3.56208,9.32118,0.548663,4.45947,-0.526462,39.2334,7,0,0,0
0,1405350760,259869,29.2746,19.8711,-49.0384,60.47,-8.61601,-0.53726,3.56167,9.33862,1.22449,4.64365,-2.07475,39.1654,7,0,0,0
0,1405350761,260876,29.543,20.4738,-48.8177,60.6229,-8.5993,-0.532605,3.56956,9.32595,1.14382,4.24083,-0.879545,39.1884,6,0,0,0
0,1405350762,261880,29.5531,19.8342,-48.859,60.4482,-8.58489,-0.541589,3.60246,9.32584,2.01774,4.24019,-1.49348,39.1723,7,0,0,0
0,1405350763,262890,29.3549,20.26,-48.7918,60.4385,-8.59807,-0.529072,3.56995,9.32477,2.49765,4.49748,-1.661,39.2179,6,0,0,0
0,1405350764,263894,29.7004,19.6733,-48.6684,60.3139,-8.59297,-0.53038,3.5817,9.32464,1.59962,5.32137,-1.25625,39.4217,8,0,0,0
0,1405350765,264895,29.4836,19.9997,-48.8881,60.4923,-8.58647,-0.536961,3.56405,9.31226,2.24221,4.93957,-1.54463,39.3244,6,0,0,0
0,1405350766,265902,29.5556,20.0703,-49.068,60.6962,-8.58868,-0.546792,3.57078,9.31745,2.42682,4.49771,-0.422401,39.3896,6,0,0,0
0,1405350767,266915,29.4857,19.6455,-48.9262,60.408,-8.59431,-0.534958,3.54707,9.3129,0.629286,5.49736,-1.00969,39.3849,7,0,0,0
0,1405350768,267916,29.6691,20.2607,-48.7205,60.5346,-8.59072,-0.538655,3.56552,9.31684,0.0347949,5.84835,-0.604986,39.4638,6,0,0,0
0,1405350769,268918,29.5649,19.5893,-48.762,60.2956,-8.5972,-0.534308,3.54459,9.31458,2.75759,4.71092,-0.433863,39.3865,7,0,0,0
0,1405350770,269926,29.3128,19.8818,-49.0229,60.4795,-8.57546,-0.55936,3.54808,9.29733,0.900581,5.1778,-1.09826,39.3563,7,0,0,0
0,1405350771,270928,29.3803,20.2643,-48.7729,60.4371,-8.59948,-0.555281,3.55747,9.32283,2.21835,3.28512,-0.362831,39.4544,7,0,0,0
0,1405350772,271937,29.6144,20.3315,-49.0211,60.7737,-8.58791,-0.553033,3.5805,9.32084,1.32808,4.72259,-1.53158,39.3948,7,0,0,0
0,1405350773,272944,29.6153,20.0881,-49.025,60.6964,-8.59059,-0.547729,3.58212,9.32362,1.85355,4.94846,-1.07575,39.3571,6,0,0,0
0,1405350774,273948,29.5901,20.3488,-49.0583,60.7978,-8.59374,-0.534398,3.60687,9.33528,2.14682,5.08194,-1.41274,39.3511,6,0,0,0
0,1405350775,274949,29.5421,19.6727,-48.3934,60.014,-8.61005,-0.533997,3.55881,9.33184,0.670183,4.23761,-0.728703,39.4058,6,0,0,0
0,1405350776,275956,29.6345,19.6559,-48.7367,60.331,-8.59072,-0.550097,3.54987,9.31154,3.27739,4.42977,-1.35121,39.2511,6,0,0,0
0,1405350777,276962,29.4499,19.8648,-48.9354,60.4696,-8.58534,-0.538262,3.55449,9.30764,3.68144,5.97343,-1.18601,39.4277,7,0,0,0
0,1405350778,277966,29.4018,20.2385,-48.8739,60.5204,-8.58307,-0.560829,3.57682,9.31543,1.51203,5.51628,-1.41686,39.358,7,0,0,0
0,1405350779,278973,29.9118,19.6886,-48.5383,60.3185,-8.59778,-0.536344,3.56023,9.3212,2.73215,4.14168,-0.639984,39.4107,7,0,0,0
0,1405350780,279986,29.4129,19.9527,-49.0507,60.5739,-8.58731,-0.516532,3.58248,9.31895,1.91693,4.31897,-1.32876,39.3981,6,0,0,0
0,1405350781,280994,29.2548,20.1067,-48.75,60.305,-8.59613,-0.515366,3.56701,9.32108,0.141822,5.08092,-1.04918,39.4628,7,0,0,0
0,1405350783,282003,29.3946,19.8482,-49.0051,60.4938,-8.59461,-0.548375,3.56237,9.31979,1.59069,4.57688,-1.23456,39.4273,7,0,0,0
0,1405350784,283011,29.5299,20.1513,-49.0329,60.6821,-8.61267,-0.509691,3.5893,9.34457,1.39189,4.97047,-2.02551,39.5175,7,0,0,0
0,1405350785,284019,29.3797,20.0381,-48.8607,60.4323,-8.58866,-0.53934,3.55859,9.31233,0.660773,4.11581,-0.375348,39.459,7,0,0,0
0,1405350786,285021,29.7552,19.9315,-48.5606,60.3387,-8.59928,-0.536148,3.57475,9.32812,0.341126,5.45919,-0.783627,39.634,6,0,0,0
0,1405350787,286025,29.7128,20.0951,-48.7161,60.4973,-8.58777,-0.542156,3.5754,9.31811,3.37475,5.06723,-1.52577,39.4749,6,0,0,0
0,1405350788,287030,29.7305,19.6308,-49.0937,60.6586,-8.59669,-0.54525,3.56198,9.32137,0.878718,5.86606,-0.644603,39.5886,6,0,0,0
0,1405350789,288039,29.451,19.6903,-49.1102,60.5548,-8.57417,-0.548569,3.57935,9.30747,1.88158,4.87783,-1.75398,39.5553,7,0,0,0
0,1405350790,289045,29.3596,19.8111,-48.6677,60.1915,-8.6092,-0.532634,3.5654,9.3335,2.88422,6.00152,-1.05064,39.6004,6,0,0,0
0,1405350791,290051,29.4878,20.0223,-49.2558,60.7993,-8.59505,-0.532064,3.58458,9.32777,3.16623,5.38812,-2.36303,39.5254,7,0,0,0
0,1405350792,291055,29.7336,19.9803,-49.1884,60.8506,-8.60939,-0.543956,3.60088,9.34793,1.11722,4.54659,-2.20779,39.5064,7,0,0,0
0,1405350793,292059,29.7318,19.5836,-48.5713,60.2219,-8.5881,-0.544553,3.58847,9.32358,2.18877,5.4284,-1.7865,39.5707,6,0,0,0
0,1405350794,293066,29.7448,19.9979,-48.5862,60.3762,-8.60087,-0.537473,3.59213,9.33634,1.53,5.69458,-0.582049,39.5841,6,0,0,0
0,1405350795,294076,29.5854,19.4594,-48.9621,60.4256,-8.57362,-0.524032,3.57667,9.30452,2.17178,5.09594,-0.785996,39.6216,7,0,0,0
0,1405350796,295077,29.6097,19.7669,-48.4506,60.1243,-8.58609,-0.555176,3.57399,9.31679,0.756046,6.01321,-1.11669,39.682,6,0,0,0
0,1405350797,296079,29.6326,20.0403,-49.0467,60.7065,-8.58993,-0.552572,3.55367,9.3124,1.43894,4.51411,-0.979686,39.6906,7,0,0,0
0,1405350798,297085,29.8081,19.4581,-48.7308,60.3476,-8.57593,-0.54809,3.56438,9.30333,0.484672,6.02847,-1.431,39.7009,6,0,0,0
0,1405350799,298093,29.3632,20.1426,-48.9692,60.5467,-8.6048,-0.551802,3.56695,9.33114,2.06769,4.01924,-0.947401,39.7487,6,0,0,0
0,1405350800,299102,29.8967,19.9295,-48.6314,60.4649,-8.58177,-0.538812,3.55673,9.30524,1.4408,5.48774,-1.59176,39.8082,7,0,0,0
0,1405350801,300104,29.6567,19.9438,-48.7638,60.4581,-8.58904,-0.557258,3.56868,9.3176,3.59082,4.72057,-1.22236,39.7677,6,0,0,0
0,1405350802,301114,29.2676,20.0851,-48.8557,60.3894,-8.61514,-0.542426,3.56958,9.34114,0.762796,5.10702,-2.00796,39.8762,6,0,0,0
0,1405350803,302116,29.5187,20.0645,-48.921,60.5575,-8.58635,-0.529598,3.57537,9.31607,2.67833,4.78712,-1.85219,39.7811,6,0,0,0
0,1405350804,303123,29.5167,20.1283,-48.6992,60.3986,-8.58528,-0.547768,3.5739,9.31557,-0.364941,5.18387,-1.47681,39.7314,5,0,0,0
0,1405350805,304132,29.7227,20.0241,-48.7342,60.4932,-8.58208,-0.532975,3.59014,9.31801,2.09351,5.06807,0.212401,39.6576,6,0,0,0
0,1405350806,305141,29.6135,19.6818,-48.6396,60.2507,-8.58582,-0.527148,3.56303,9.31072,1.78923,4.65846,-0.860851,39.6438,8,0,0,0
0,1405350807,306147,29.1866,19.5412,-48.7456,60.082,-8.58419,-0.552615,3.573,9.31451,0.772237,4.7402,-1.43929,39.7746,6,0,0,0
0,1405350808,307153,29.8021,19.5853,-48.6264,60.3016,-8.59899,-0.558597,3.56849,9.32678,1.93978,5.00652,-2.4735,39.5641,7,0,0,0
0,1405350809,308164,29.5606,20.1232,-48.7837,60.4865,-8.60559,-0.537916,3.5562,9.32696,0.700413,3.62174,-0.0485688,39.7222,6,0,0,0
0,1405350810,309170,29.5746,20.1099,-48.8742,60.5619,-8.60121,-0.547585,3.591,9.33681,2.15129,3.94713,-1.22193,39.6951,6,0,0,0
0,1405350811,310171,29.3652,20.4674,-49.0861,60.7509,-8.59444,-0.558416,3.58354,9.32834,2.5799,5.88461,-1.40453,39.6012,7,0,0,0
0,1405350812,311175,29.4491,20.0644,-48.8662,60.4792,-8.59104,-0.536467,3.56524,9.3169,0.315173,6.27189,-1.46879,39.7711,7,0,0,0
0,1405350813,312186,29.5323,19.9511,-48.6287,60.2906,-8.60209,-0.545341,3.5724,9.33034,1.89464,4.76469,-2.21696,39.8163,8,0,0,0
0,1405350814,313189,29.7371,19.9853,-49.2366,60.8929,-8.60816,-0.545713,3.5642,9.33283,3.10547,4.62604,-2.14132,39.8067,6,0,0,0
0,1405350815,314193,29.2694,20.047,-48.7553,60.2964,-8.59515,-0.542767,3.55704,9.31793,2.5008,4.83569,-1.57402,39.8612,5,0,0,0
0,1405350816,315194,29.6438,19.9021,-48.5448,60.2615,-8.60052,-0.533277,3.55167,9.32028,2.33294,4.70954,-1.40726,39.8673,6,0,0,0
0,1405350817,316199,29.5317,19.7117,-48.3774,60.0087,-8.60473,-0.543885,3.55461,9.32591,1.58167,4.72768,-0.883711,39.8631,7,0,0,0
0,1405350818,317205,29.5341,20.057,-49.1327,60.7335,-8.57969,-0.527422,3.54862,9.29956,0.508743,4.71759,-1.15964,39.7361,7,0,0,0
0,1405350819,318206,29.4954,19.9506,-49.0659,60.6257,-8.59223,-0.550328,3.59471,9.33012,2.79086,4.51554,-1.15609,39.7266,7,0,0,0
0,1405350820,319210,29.6425,19.9553,-48.5823,60.3087,-8.58274,-0.548924,3.56938,9.31156,2.53843,4.18025,-1.62044,39.68,6,0,0,0
0,1405350821,320219,29.694,19.4683,-48.8273,60.3726,-8.5902,-0.539144,3.55356,9.31182,1.44398,5.49358,-1.87858,39.7328,6,0,0,0
0,1405350822,321224,29.7162,19.832,-48.7771,60.4613,-8.60567,-0.545666,3.59236,9.34133,0.8988,4.09412,-1.77814,39.644,7,0,0,0
0,1405350823,322226,29.6544,19.8137,-48.7321,60.3886,-8.59165,-0.526397,3.55901,9.31451,2.49556,4.56492,-0.508882,39.5394,7,0,0,0
0,1405350824,323239,29.4295,19.7645,-48.5191,60.0902,-8.5903,-0.518707,3.56484,9.31506,2.1019,5.48317,-0.837296,39.6793,7,0,0,0
0,1405350825,324243,29.3268,20.1429,-49.022,60.5719,-8.60786,-0.530388,3.59053,9.34176,1.66808,5.27869,-2.43034,39.6392,7,0,0,0
0,1405350826,325245,29.3544,19.903,-48.9088,60.4143,-8.59406,-0.544582,3.57348,9.32331,3.182,4.72294,-1.07149,39.5824,7,0,0,0
0,1405350827,326250,29.4906,20.2646,-48.9714,60.6511,-8.61364,-0.550555,3.58451,9.34594,3.98147,5.65696,-1.20596,39.5118,6,0,0,0
0,1405350828,327255,29.2908,19.9551,-48.9351,60.4219,-8.59962,-0.547251,3.57232,9.32815,2.88381,5.01913,-1.84585,39.5561,7,0,0,0
0,1405350829,328266,29.3786,19.744,-48.6375,60.1542,-8.60385,-0.518701,3.57615,9.33188,1.745,4.20004,-0.444017,39.5357,6,0,0,0
0,1405350830,329271,29.4722,19.8112,-48.6951,60.2686,-8.60739,-0.529349,3.57924,9.33693,1.4643,4.2395,0.135025,39.4894,6,0,0,0
0,1405350831,330276,29.6997,19.9962,-48.8379,60.5563,-8.58467,-0.527703,3.54798,9.30393,2.90432,4.13392,-1.72404,39.5069,8,0,0,0
0,1405350832,331277,29.8415,19.8832,-49.1289,60.8236,-8.58333,-0.529798,3.55072,9.30386,0.474504,4.34284,-1.99498,39.4234,7,0,0,0
0,1405350833,332281,29.142,19.8076,-48.6478,60.0683,-8.58722,-0.542719,3.53529,9.30232,0.963168,4.03843,-0.599349,39.377,7,0,0,0
0,1405350834,333287,29.921,20.1389,-48.9653,60.8148,-8.58523,-0.547522,3.56493,9.31207,-0.00342406,4.44882,-1.41083,39.1762,6,0,0,0
0,1405350835,334291,29.7779,19.4477,-48.8806,60.4504,-8.59677,-0.55438,3.58911,9.33239,1.21058,5.03512,-0.990141,39.0761,6,0,0,0
0,1405350836,335299,29.241,19.8493,-48.9144,60.3461,-8.59545,-0.535768,3.58372,9.32801,2.30204,5.2016,-0.454916,39.0538,6,0,0,0
0,1405350837,336305,29.3089,19.8207,-48.5561,60.0797,-8.60136,-0.57043,3.58115,9.33453,3.02371,5.2324,-1.14287,38.9376,7,0,0,0
0,1405350838,337312,29.3045,19.8827,-48.9462,60.4136,-8.59313,-0.567591,3.56105,9.31907,0.649521,5.44555,-0.942344,38.9077,7,0,0,0
0,1405350839,338319,29.649,19.945,-49.0074,60.6514,-8.61183,-0.552521,3.61466,9.356,-0.458097,4.51517,-0.633306,38.8456,7,0,0,0
0,1405350840,339320,29.7469,19.9672,-49.2131,60.8728,-8.5962,-0.539383,3.56511,9.32178,2.99257,4.05162,-1.75549,38.7955,7,0,0,0
0,1405350841,340327,29.4217,19.8965,-49.0867,60.5889,-8.5798,-0.543576,3.61319,9.32543,2.70415,5.53628,-1.59542,38.7552,6,0,0,0
0,1405350842,341332,29.6253,20.0579,-48.8723,60.5679,-8.60982,-0.525408,3.57812,9.33852,2.291,5.03238,-1.52754,38.5836,8,0,0,0
0,1405350843,342336,29.5495,19.6731,-48.669,60.2401,-8.60337,-0.5349,3.53244,9.3157,-0.452564,5.74997,-1.12991,38.6809,6,0,0,0
0,1405350844,343344,29.2553,19.9026,-48.845,60.3143,-8.59967,-0.537899,3.56249,9.32389,1.35172,4.71805,-0.940175,38.7322,7,0,0,0
0,1405350845,344353,29.6546,20.12,-49.3377,60.9789,-8.6036,-0.525607,3.57436,9.33136,1.8708,5.94167,-2.31258,38.673,6,0,0,0
0,1405350846,345359,29.3039,20.1789,-49.0406,60.5879,-8.59286,-0.524338,3.57094,9.32007,0.833372,4.78174,-1.19876,38.6514,7,0,0,0
0,1405350847,346369,29.3935,20.2814,-48.6306,60.3345,-8.60383,-0.539222,3.55792,9.32606,1.41816,5.21088,-1.85084,38.632,6,0,0,0
0,1405350848,347373,29.7438,19.8585,-49.2339,60.8526,-8.58555,-0.558184,3.58476,9.32061,1.91253,4.49446,-1.04862,38.5369,6,0,0,0
0,1405350849,348380,29.7434,19.9768,-49.0938,60.7778,-8.59537,-0.536087,3.57763,9.32563,3.01822,5.20259,-0.101559,38.4781,6,0,0,0
0,1405350850,349385,29.6285,19.6733,-49.2655,60.7616,-8.58433,-0.553342,3.55736,9.30869,1.7329,4.39072,-0.601481,38.3782,6,0,0,0
0,1405350851,350393,29.5589,20.0938,-48.7612,60.4578,-8.60346,-0.540534,3.5894,9.33785,2.55564,4.02227,-0.824485,38.4431,7,0,0,0
0,1405350852,351397,29.6764,20.0759,-48.9984,60.7007,-8.58049,-0.562607,3.57573,9.31274,1.55628,3.8225,-0.983611,38.3172,6,0,0,0
0,1405350853,352406,29.6944,20.0774,-48.9235,60.6495,-8.60973,-0.566142,3.5729,9.33882,1.96387,5.79074,-1.0852,38.3551,7,0,0,0
0,1405350854,353411,29.5599,20.358,-49.2531,60.9434,-8.59991,-0.537141,3.53989,9.31546,2.28074,4.47614,-0.863576,38.169,6,0,0,0
0,1405350855,354412,29.5331,19.7616,-49.1472,60.6479,-8.58818,-0.542519,3.56509,9.31456,2.74812,5.07719,-2.62639,38.397,5,0,0,0
0,1405350856,355420,29.4057,19.9052,-48.9091,60.4402,-8.61629,-0.544147,3.58594,9.34856,2.96881,3.94391,-0.487144,38.313,6,0,0,0
0,1405350857,356421,29.7339,20.2239,-48.9248,60.7186,-8.59214,-0.538797,3.59057,9.32777,1.76072,4.12276,-1.75616,38.2998,6,0,0,0
0,1405350858,357427,29.4317,19.8687,-48.9761,60.495,-8.60997,-0.526576,3.57232,9.3365,3.60933,4.4412,-0.341336,38.2391,7,0,0,0
0,1405350859,358437,29.6235,19.6816,-48.7567,60.35,-8.60512,-0.540541,3.5979,9.34265,1.63693,4.54835,-1.0902,38.3371,7,0,0,0
0,1405350860,359439,29.7004,20.1255,-49.0227,60.7485,-8.62035,-0.529957,3.57023,9.34547,1.42944,4.93849,-1.08196,38.3027,7,0,0,0
0,1405350861,360444,29.6104,20.1874,-49.1187,60.8025,-8.58331,-0.544293,3.58204,9.31668,2.28729,4.3639,-1.4565,38.1884,7,0,0,0
0,1405350862,361453,29.849,20.3944,-48.8675,60.7859,-8.59411,-0.514815,3.59163,9.32864,2.34793,4.40222,-2.22341,38.2876,7,0,0,0
0,1405350863,362455,29.5363,19.9846,-49.082,60.6698,-8.59293,-0.538021,3.60045,9.33226,1.33887,3.689,-1.92518,38.2691,6,0,0,0
0,1405350864,363465,29.6595,19.7861,-48.9161,60.5306,-8.58951,-0.545432,3.5689,9.31741,2.20298,5.02852,-0.550529,38.3076,7,0,0,0
0,1405350865,364479,29.523,19.9406,-48.9033,60.5043,-8.59036,-0.544768,3.59591,9.32854,1.13887,5.75498,-1.09007,38.2199,6,0,0,0
0,1405350866,365483,29.6619,19.9328,-48.9932,60.6422,-8.58371,-0.548087,3.55059,9.30522,3.2537,4.86402,-1.27368,38.2681,6,0,0,0
0,1405350867,366491,29.526,20.4475,-49.0701,60.8092,-8.58938,-0.53984,3.59516,9.32706,2.57715,4.77282,-2.45262,38.2999,7,0,0,0
0,1405350868,367498,29.8111,19.7521,-48.7562,60.465,-8.60864,-0.524345,3.55148,9.3272,0.104882,3.94644,-1.22807,38.3746,6,0,0,0
0,1405350869,368505,29.5095,19.7001,-48.974,60.4761,-8.58634,-0.53436,3.55739,9.30945,1.48083,4.94861,-1.07834,38.3626,6,0,0,0
0,1405350870,369508,29.4471,20.2982,-49.2319,60.8517,-8.60429,-0.526682,3.54564,9.3211,0.39972,4.71434,-2.20714,38.4604,6,0,0,0
0,1405350871,370520,29.8434,20.008,-48.6328,60.4657,-8.58992,-0.558985,3.5721,9.31982,1.75768,5.11226,-1.32929,38.3884,6,0,0,0
0,1405350872,371521,29.5878,19.7785,-49.193,60.7172,-8.61249,-0.542034,3.54791,9.33041,2.2448,4.12375,-0.657441,38.3778,7,0,0,0
0,1405350873,372527,29.6936,20.3679,-49.1959,60.9655,-8.59892,-0.545185,3.56957,9.32633,0.992907,3.8973,-1.36934,38.4585,6,0,0,0
0,1405350874,373532,29.5573,19.8726,-48.9372,60.5261,-8.59064,-0.541857,3.59659,9.32889,2.03425,4.83525,-1.47816,38.5542,7,0,0,0
0,1405350875,374535,29.3184,20.161,-48.9918,60.5494,-8.60039,-0.531801,3.56455,9.32499,1.74461,5.25301,-1.67542,38.5204,7,0,0,0
0,1405350876,375541,29.4527,19.906,-48.7878,60.3652,-8.60019,-0.540921,3.57682,9.33003,1.27284,5.46148,-0.906184,38.576,7,0,0,0
0,1405350877,376557,29.6821,19.7815,-48.8706,60.5035,-8.59081,-0.523516,3.57326,9.31903,2.51836,4.76395,-2.46856,38.6591,7,0,0,0
0,1405350878,377566,29.8327,19.6126,-48.8913,60.5393,-8.61165,-0.522156,3.56492,9.33498,2.55216,3.71484,0.520167,38.6603,7,0,0,0
0,1405350879,378569,29.6782,19.458,-49.0006,60.5018,-8.59103,-0.547291,3.58055,9.32339,2.87957,4.50213,-1.56939,38.7327,7,0,0,0
0,1405350880,379577,29.4242,19.8485,-48.9758,60.4845,-8.58912,-0.552372,3.56415,9.31565,2.80293,4.84477,-0.31573,38.6371,7,0,0,0
0,1405350881,380579,29.9048,19.8936,-48.8326,60.6191,-8.59109,-0.546107,3.57489,9.3212,3.0728,5.09683,-1.22023,38.594,6,0,0,0
0,1405350882,381581,29.6884,20.0398,-48.9667,60.669,-8.57319,-0.537221,3.59773,9.313,0.812411,3.03171,-1.3907,38.6127,7,0,0,0
0,1405350883,382586,29.5781,19.7646,-49.126,60.6537,-8.59321,-0.532157,3.58789,9.32734,0.689314,4.39928,-1.77042,38.5525,7,0,0,0
0,1405350884,383588,29.4974,19.809,-48.6819,60.2696,-8.61988,-0.56176,3.57964,9.35049,2.45926,4.55292,-0.962657,38.5553,7,0,0,0
0,1405350885,384597,29.237,19.7977,-49.0046,60.4003,-8.59439,-0.518106,3.58387,9.3261,3.21794,5.50477,-1.0165,38.6643,7,0,0,0
0,1405350886,385606,29.5584,20.0207,-48.7194,60.3995,-8.61011,-0.537389,3.59836,9.34724,2.67218,4.39904,-3.24207,38.6387,7,0,0,0
0,1405350887,386611,29.0444,19.8043,-49.0833,60.3735,-8.61236,-0.539124,3.55874,9.33424,1.19555,5.20396,-0.793875,38.588,7,0,0,0
0,1405350888,387613,29.6256,20.0979,-49.1638,60.8168,-8.60113,-0.527022,3.5833,9.33259,2.02225,4.25922,-2.25086,38.539,6,0,0,0
0,1405350889,388614,29.5284,20.5322,-48.8121,60.631,-8.60474,-0.544839,3.56393,9.32952,0.945422,4.41016,-1.51129,38.5082,7,0,0,0
0,1405350890,389623,29.4463,20.1145,-48.9741,60.5817,-8.59048,-0.541609,3.55031,9.31098,2.4162,4.47136,-0.915572,38.5019,6,0,0,0
0,1405350891,390628,29.7313,19.9035,-48.7226,60.4482,-8.60488,-0.560314,3.56832,9.33225,3.31353,3.38003,-1.20186,38.496,7,0,0,0
0,1405350892,391629,29.4994,19.9733,-49.221,60.7606,-8.59768,-0.55963,3.58053,9.33024,0.789242,5.4784,-1.09238,38.4756,6,0,0,0
0,1405350893,392632,29.6069,20.2667,-49.0751,60.792,-8.57767,-0.549344,3.5628,9.3044,3.11448,3.83977,-1.29393,38.4943,5,0,0,0
0,1405350894,393634,29.5956,19.8398,-49.0186,60.5998,-8.60066,-0.539242,3.55706,9.32281,1.13102,4.47393,-1.739,38.3934,7,0,0,0
0,1405350895,394642,29.1332,20.1405,-48.8058,60.3025,-8.59684,-0.531297,3.55155,9.31673,1.6782,4.04165,-0.458686,38.4634,7,0,0,0
0,1405350896,395650,29.6407,20.0827,-49.1752,60.8284,-8.59046,-0.546935,3.54759,9.31024,2.67252,3.2064,-1.87041,38.5298,6,0,0,0
0,1405350897,396657,29.5612,19.9265,-48.8092,60.4423,-8.59337,-0.552654,3.55161,9.31479,0.976878,4.6691,-1.71221,38.3005,6,0,0,0
0,1405350898,397663,29.5373,20.1705,-48.8517,60.5458,-8.59085,-0.526044,3.58124,9.32227,1.0139,3.90991,-0.967005,38.3966,6,0,0,0
0,1405350899,398670,29.9907,20.0399,-48.7066,60.6083,-8.59792,-0.545349,3.56588,9.32401,2.82199,4.28942,-0.841676,38.3727,5,0,0,0
0,1405350900,399680,29.6121,20.1133,-48.7179,60.4554,-8.59983,-0.547803,3.56184,9.32437,2.38641,3.87958,-0.216025,38.3385,6,0,0,0
0,1405350901,400684,29.6592,19.733,-48.8813,60.485,-8.57483,-0.526535,3.56615,9.30174,1.52657,4.28516,-0.664758,38.4009,7,0,0,0
0,1405350902,401695,29.5591,20.1561,-48.9793,60.6546,-8.60965,-0.548008,3.55291,9.33003,2.83818,3.73486,-1.92357,38.2387,6,0,0,0
0,1405350903,402697,29.402,19.9235,-49.014,60.5292,-8.59579,-0.542082,3.56032,9.31972,2.04816,3.83301,-1.00853,38.2936,6,0,0,0
0,1405350904,403701,29.7418,20.1095,-48.9991,60.7443,-8.59367,-0.535668,3.57907,9.32458,1.53111,6.54838,-0.80025,38.2816,7,0,0,0
0,1405350905,404703,29.5745,20.1756,-48.8396,60.5558,-8.57636,-0.540192,3.61706,9.32357,0.927725,5.40386,-1.03432,38.2828,6,0,0,0
0,1405350906,405709,29.5136,19.9404,-49.3764,60.8827,-8.59902,-0.555716,3.58423,9.33267,-0.842772,4.44815,-0.820383,38.2978,7,0,0,0
0,1405350907,406715,29.6767,20.0844,-49.0099,60.7129,-8.59741,-0.561371,3.57129,9.32656,2.17123,3.52803,-0.659192,38.2527,6,0,0,0
0,1405350908,407716,29.7671,19.9637,-48.9569,60.6746,-8.59453,-0.541913,3.56527,9.32045,4.02546,6.09861,-1.20925,38.3405,7,0,0,0
0,1405350909,408717,29.8044,20.0392,-49.0061,60.7575,-8.5756,-0.53971,3.55299,9.29816,2.62684,4.13893,-1.01082,38.3394,6,0,0,0
0,1405350910,409719,29.4192,20.0059,-49.0166,60.5669,-8.60214,-0.533641,3.60465,9.34211,1.9919,5.57082,-1.35885,38.2909,6,0,0,0
0,1405350911,410720,29.6186,19.6748,-49.411,60.8753,-8.5951,-0.528989,3.56092,9.31857,2.066,5.11349,-1.55174,38.3028,7,0,0,0
0,1405350912,411726,29.5274,20.3072,-49.1053,60.7913,-8.58188,-0.539647,3.57976,9.31421,2.81379,4.24023,-1.19481,38.3464,6,0,0,0
0,1405350913,412730,29.6928,19.8011,-48.7157,60.3901,-8.6047,-0.533237,3.55485,9.32535,1.88491,4.27378,-0.470853,38.3697,6,0,0,0
0,1405350914,413739,29.5653,19.9027,-48.6174,60.2816,-8.5857,-0.548382,3.56654,9.31318,2.0178,5.25462,0.0457401,38.3389,7,0,0,0
0,1405350915,414744,29.8978,19.8395,-48.8743,60.6315,-8.60707,-0.529583,3.55361,9.32686,2.94952,4.30187,-2.29915,38.2908,7,0,0,0
0,1405350916,415759,29.6595,19.5823,-48.7828,60.3566,-8.58822,-0.547769,3.57826,9.31996,2.4709,4.76828,-1.58214,38.2841,7,0,0,0
0,1405350917,416769,29.4963,20.4236,-49.2016,60.893,-8.60224,-0.531296,3.57387,9.33024,2.29648,4.34225,-2.01358,38.3709,6,0,0,0
0,1405350918,417774,29.9904,19.9318,-48.9125,60.7382,-8.61671,-0.543547,3.56826,9.34214,1.9114,4.0284,-0.819064,38.4063,7,0,0,0
0,1405350919,418782,29.5885,19.9394,-49.1057,60.6995,-8.5913,-0.543645,3.5905,9.32726,2.72602,3.99544,-0.877472,38.403,6,0,0,0
0,1405350920,419783,29.3395,20.1118,-48.959,60.5167,-8.57053,-0.529782,3.59501,9.30907,1.73252,4.97227,-1.10042,38.3389,8,0,0,0
0,1405350921,420785,29.652,19.8412,-49.0676,60.6674,-8.59057,-0.538604,3.58251,9.32321,1.21878,5.2263,-1.63523,38.4764,7,0,0,0
0,1405350922,421791,29.1143,20.0293,-48.7778,60.2336,-8.59921,-0.528626,3.58619,9.33202,1.80605,5.07019,0.116295,38.4094,7,0,0,0
0,1405350923,422808,29.5662,19.9644,-48.9929,60.6056,-8.58751,-0.536744,3.57012,9.31553,2.90787,5.38333,-1.51499,38.4805,7,0,0,0
0,1405350924,423817,29.7013,20.0129,-49.0702,60.75,-8.58703,-0.546807,3.58162,9.32009,2.08943,5.32749,-1.80194,38.5155,6,0,0,0
0,1405350925,424819,29.9436,20.0078,-48.9788,60.7935,-8.60317,-0.530766,3.5928,9.33833,2.87845,4.71744,-2.22538,38.4394,7,0,0,0
0,1405350926,425822,29.4262,20.4421,-49.2639,60.9156,-8.59487,-0.545556,3.57831,9.32597,3.39346,4.15847,-1.25238,38.5015,6,0,0,0
0,1405350927,426826,29.5196,19.7499,-48.8987,60.4363,-8.59101,-0.538727,3.57213,9.31965,1.10099,5.96097,-1.1313,38.5244,6,0,0,0
0,1405350928,427832,29.2534,20.0775,-49.1531,60.6209,-8.5977,-0.54414,3.56056,9.3217,2.14647,5.64976,-0.988637,38.4741,7,0,0,0
0,1405350929,428833,29.445,20.0078,-48.6246,60.2633,-8.59824,-0.530058,3.55116,9.3178,0.632114,4.43763,-2.58195,38.5811,7,0,0,0
0,1405350930,429843,29.6774,20.2794,-48.9023,60.6913,-8.5857,-0.533443,3.57308,9.31481,3.58512,5.056,-1.29771,38.5301,7,0,0,0
0,1405350931,430852,29.4286,20.259,-48.607,60.325,-8.60908,-0.538872,3.60121,9.34748,0.928348,5.31215,-2.50504,38.4917,7,0,0,0
0,1405350932,431860,29.7504,20.0846,-48.8393,60.6115,-8.59375,-0.548729,3.59386,9.3311,2.02694,5.72705,-0.716219,38.5575,6,0,0,0
0,1405350933,432864,29.3544,20.1201,-48.9277,60.5014,-8.60234,-0.544584,3.59576,9.3395,2.27562,4.64954,-1.21761,38.6003,6,0,0,0
0,1405350934,433869,29.5041,19.9434,-49.2219,60.7538,-8.59732,-0.538156,3.52483,9.30741,2.46806,4.41799,-0.605127,38.5191,7,0,0,0
0,1405350935,434873,29.5318,20.1411,-48.8427,60.526,-8.58984,-0.553425,3.55253,9.31193,2.56693,4.76873,-1.26427,38.6249,7,0,0,0
0,1405350936,435880,29.3425,20.2044,-49.4505,60.9472,-8.59059,-0.537951,3.557,9.31342,0.620467,5.31625,-1.81919,38.4338,6,0,0,0
0,1405350937,436891,29.8238,19.9832,-49.0711,60.801,-8.5894,-0.548019,3.5938,9.32704,2.02925,4.4432,-0.918288,38.4202,7,0,0,0
0,1405350938,437896,29.5843,19.867,-48.7689,60.4014,-8.60217,-0.541684,3.55473,9.32345,2.83623,4.82288,-0.582294,38.4748,7,0,0,0
0,1405350939,438903,29.3823,19.7777,-48.9458,60.4167,-8.59631,-0.547619,3.56061,9.32064,2.75049,4.66043,-2.63135,38.4543,7,0,0,0
0,1405350940,439906,29.5327,20.235,-49.2073,60.8523,-8.58452,-0.54162,3.56917,9.3127,2.90093,3.59413,-0.849538,38.5013,6,0,0,0
0,1405350941,440911,29.6378,20.1832,-48.9099,60.646,-8.60075,-0.543527,3.56711,9.32698,2.04641,4.92235,-0.854574,38.4965,6,0,0,0
0,1405350942,441931,29.7317,20.0983,-48.9374,60.6859,-8.59263,-0.539662,3.59939,9.33168,4.04667,4.45739,-1.1425,38.4925,6,0,0,0
0,1405350943,442936,29.9115,19.582,-48.3289,60.1152,-8.57516,-0.54499,3.52568,9.28767,2.31139,4.86214,-1.83415,38.5082,5,0,0,0
0,1405350944,443940,29.883,20.2822,-48.6503,60.5906,-8.59551,-0.539565,3.53176,9.30844,1.58698,3.5202,-0.793564,38.4473,6,0,0,0
0,1405350945,444944,29.3337,19.764,-48.9653,60.4044,-8.56678,-0.560153,3.60541,9.31142,1.84251,4.54983,-2.27877,38.4922,5,0,0,0
0,1405350946,445949,29.5627,19.8989,-48.8145,60.4381,-8.60651,-0.552704,3.576,9.33623,1.1863,4.86055,-0.764826,38.5639,7,0,0,0
0,1405350947,446957,29.6458,19.8194,-48.8342,60.4687,-8.59308,-0.537839,3.5935,9.32971,2.03836,4.3756,-2.19877,38.5019,7,0,0,0
0,1405350948,447959,29.4411,19.756,-49.0029,60.4844,-8.59609,-0.533454,3.58348,9.32838,1.64079,3.74882,-0.98244,38.5978,8,0,0,0
0,1405350949,448961,29.3162,19.8749,-48.8769,60.3606,-8.59496,-0.540386,3.59445,9.33196,2.13901,3.92458,-1.42719,38.5231,7,0,0,0
0,1405350950,449967,29.488,19.8137,-48.9431,60.4777,-8.60967,-0.546293,3.59887,9.34755,0.526734,6.3322,-1.17139,38.6235,6,0,0,0
0,1405350951,450972,29.6437,19.918,-49.1283,60.7377,-8.59822,-0.526231,3.60717,9.33905,2.00215,5.27898,-0.615697,38.642,6,0,0,0
0,1405350952,451984,29.3128,19.9201,-49.0612,60.5232,-8.59071,-0.552718,3.56805,9.31863,2.06006,4.87429,0.0374467,38.6709,6,0,0,0
0,1405350953,452988,29.3573,19.9113,-48.9805,60.4765,-8.61429,-0.552488,3.57091,9.34144,0.0841872,4.71179,-0.700571,38.4977,6,0,0,0
0,1405350954,453994,29.9364,19.7776,-48.5969,60.407,-8.59383,-0.53069,3.57162,9.32159,1.46826,4.51405,-1.64098,38.5171,7,0,0,0
0,1405350955,454999,29.3263,20.2486,-48.8336,60.4546,-8.58837,-0.549722,3.56912,9.3167,1.89919,5.01652,-0.967489,38.5142,3,0,0,0
0,1405350957,456002,29.2797,19.8977,-49.136,60.5605,-8.5855,-0.522035,3.54789,9.30434,1.67112,5.08877,-1.52658,38.3826,11,0,0,0
0,1405350958,457003,29.3062,20.0904,-49.0704,60.5837,-8.62796,-0.53644,3.58977,9.36034,1.12111,3.8944,0.115247,38.4429,11,0,0,0
0,1405350959,458009,29.3013,19.7205,-48.5437,60.0329,-8.60908,-0.519617,3.58697,9.34091,0.334287,3.90902,-2.53555,38.4361,10,0,0,0
0,1405350960,459016,29.4758,19.8436,-49.0843,60.5959,-8.60195,-0.53551,3.53766,9.3164,2.23357,4.4684,-1.43168,38.4989,10,0,0,0
0,1405350961,460020,29.3186,19.7663,-48.4429,59.975,-8.59483,-0.523836,3.56785,9.32068,1.54789,4.72819,-1.89256,38.4557,11,0,0,0
0,1405350962,461022,29.6278,19.8194,-48.5238,60.2094,-8.58599,-0.568855,3.54622,9.3069,1.98745,4.6078,-0.485492,38.5234,11,0,0,0
0,1405350963,462025,29.4768,19.9861,-48.6946,60.3282,-8.59911,-0.54009,3.51713,9.30626,3.45379,5.41051,-1.20128,38.4155,11,0,0,0
0,1405350964,463027,29.9255,19.8123,-48.4321,60.2805,-8.6009,-0.528775,3.54572,9.31811,2.00665,4.59971,-1.46382,38.59,11,0,0,0
0,1405350965,464030,29.5423,19.6579,-48.9689,60.4743,-8.5976,-0.527731,3.5876,9.33103,2.79162,5.21897,-1.30422,38.5628,12,0,0,0
0,1405350966,465039,29.664,19.777,-48.6822,60.341,-8.59772,-0.505747,3.5816,9.32761,2.01306,4.60436,-1.6385,38.5778,11,0,0,0
0,1405350967,466040,29.4849,19.6619,-49.1279,60.5764,-8.61118,-0.522178,3.56188,9.33339,3.00552,4.49414,-0.921689,38.5846,10,0,0,0
0,1405350968,467041,29.551,19.9755,-49.3473,60.8887,-8.5872,-0.534015,3.60602,9.32891,2.30265,4.5518,-0.89577,38.7983,10,0,0,0
0,1405350969,468044,29.1748,20.0027,-48.9658,60.4064,-8.58592,-0.56558,3.57957,9.3194,2.21813,4.26724,-0.902599,38.7944,11,0,0,0
0,1405350970,469047,29.5683,20.056,-48.9116,60.5713,-8.60838,-0.552961,3.54856,9.3275,2.47091,4.55826,-0.163367,38.6866,11,0,0,0
0,1405350971,470053,29.527,19.9015,-48.9912,60.5645,-8.62767,-0.510104,3.55428,9.34504,1.85981,5.47005,-0.232859,38.6559,11,0,0,0
0,1405350972,471059,29.6811,20.1799,-48.6211,60.4335,-8.58206,-0.529203,3.58738,9.31671,1.2905,4.6422,-2.61761,38.8234,11,0,0,0
0,1405350973,472060,29.6073,19.841,-49.1595,60.7199,-8.60897,-0.526435,3.53893,9.32285,2.48753,4.02313,-0.21533,38.7909,10,0,0,0
0,1405350974,473064,29.515,19.5572,-48.5304,60.0735,-8.6085,-0.558531,3.5675,9.33516,2.81483,4.34877,-1.03823,38.8567,10,0,0,0
0,1405350975,474066,29.5584,20.0466,-48.785,60.4611,-8.61239,-0.537554,3.5808,9.34261,1.72986,5.76359,0.546713,38.7499,10,0,0,0
0,1405350976,475069,29.2361,19.8704,-48.7255,60.1976,-8.59858,-0.5343,3.6019,9.33781,2.22893,5.78706,-0.927142,38.7495,10,0,0,0
0,1405350977,476073,29.6472,19.5524,-48.5418,60.1461,-8.57871,-0.527721,3.57927,9.31043,1.76306,5.16197,-0.763285,38.5978,11,0,0,0
0,1405350978,477080,29.7233,20.0113,-49.0442,60.7393,-8.58179,-0.556394,3.56799,9.3106,1.84542,5.02379,-0.903572,38.5136,11,0,0,0
0,1405350979,478086,29.4127,19.8,-48.9435,60.4368,-8.5793,-0.523253,3.55835,9.30269,2.43834,4.3717,-1.6284,38.5854,11,0,0,0
0,1405350980,479090,29.2613,19.9863,-48.7672,60.2819,-8.59852,-0.567736,3.57782,9.33047,1.54445,5.00526,-0.824382,38.5743,10,0,0,0
0,1405350981,480092,29.2168,19.874,-49.1212,60.5103,-8.58799,-0.543103,3.58878,9.32351,0.783122,4.43413,-0.966957,38.4253,10,0,0,0
0,1405350982,481095,29.6829,19.8104,-48.9025,60.539,-8.58956,-0.529535,3.5776,9.31988,2.56978,4.13169,-0.922891,38.5084,11,0,0,0
0,1405350983,482096,29.7057,19.3818,-48.8029,60.3308,-8.60348,-0.530125,3.58488,9.33554,1.51187,3.47969,-1.36208,38.5292,12,0,0,0
0,1405350984,483099,29.5973,20.3873,-49.3277,61.0316,-8.58643,-0.537022,3.55718,9.3096,1.32974,5.25016,-1.23236,38.5337,10,0,0,0
0,1405350985,484104,29.0831,19.7876,-48.2782,59.734,-8.61405,-0.519601,3.59092,9.347,0.839928,4.67475,-1.26593,38.4882,10,0,0,0
0,1405350986,485106,28.5372,19.1778,-48.7949,59.6917,-8.5963,-0.527058,3.5326,9.30878,1.39206,4.34676,-1.11329,38.5502,11,0,0,0
0,1405350987,486111,29.442,19.6002,-48.9275,60.373,-8.58103,-0.561986,3.58394,9.31636,1.37087,3.33048,-0.853434,38.4574,11,0,0,0
0,1405350988,487118,29.2158,19.313,-48.7787,60.0493,-8.577,-0.541429,3.55285,9.29951,2.48808,4.17347,-1.14327,38.49,11,0,0,0
0,1405350989,488124,29.4467,20.3741,-48.4136,60.217,-8.57743,-0.538947,3.58979,9.31393,2.34413,5.31554,-1.05838,38.4869,11,0,0,0
0,1405350990,489130,29.1916,20.0323,-49.3895,60.7681,-8.57481,-0.529558,3.58916,9.31074,2.04776,5.08861,-0.962634,38.4469,10,0,0,0
0,1405350991,490133,29.227,19.5686,-48.7156,60.0862,-8.59746,-0.540821,3.59648,9.33507,2.45563,4.49049,-1.71206,38.487,10,0,0,0
0,1405350992,491139,29.3826,20.0705,-48.8352,60.4239,-8.58414,-0.553038,3.59894,9.32447,2.17555,4.54878,-1.32409,38.4859,10,0,0,0
0,1405350993,492148,29.6552,19.8368,-49.2666,60.8287,-8.60498,-0.543591,3.56425,9.32979,2.09954,4.37579,-0.72378,38.3272,11,0,0,0
0,1405350994,493153,29.437,19.8192,-48.4639,60.0674,-8.58012,-0.492795,3.58571,9.31228,1.36163,5.14076,-1.94687,38.4849,11,0,0,0
0,1405350995,494157,29.8001,19.5613,-49.0072,60.6003,-8.59502,-0.521823,3.5827,9.32643,1.16859,5.51604,-1.06953,38.2988,10,0,0,0
0,1405350996,495161,29.3328,19.7171,-48.8028,60.2569,-8.5991,-0.536342,3.5413,9.3152,1.69217,4.54633,-1.90709,38.4182,11,0,0,0
0,1405350997,496166,29.7111,19.6575,-48.7211,60.3565,-8.60314,-0.527238,3.57151,9.32993,0.795203,5.32412,-0.921549,38.415,11,0,0,0
0,1405350998,497169,29.53,20.2106,-48.7545,60.4772,-8.59304,-0.552928,3.57289,9.32264,2.88976,3.71243,-1.50976,38.4801,11,0,0,0
0,1405350999,498172,29.6254,19.864,-48.8486,60.485,-8.58697,-0.559947,3.56527,9.31454,2.70686,4.32764,0.00734672,38.3486,11,0,0,0
0,1405351000,499182,29.8049,19.9747,-48.5425,60.3631,-8.57345,-0.547553,3.62407,9.32404,1.05577,4.20035,-0.930522,38.428,11,0,0,0
0,1405351001,500184,29.0656,19.8548,-48.6959,60.0858,-8.6,-0.53068,3.56461,9.3246,1.83335,3.92281,-1.3136,38.444,10,0,0,0
0,1405351002,501187,29.3651,19.6922,-48.8832,60.3296,-8.60798,-0.530033,3.55134,9.32686,2.09644,4.28967,-0.615374,38.4225,10,0,0,0
0,1405351003,502198,29.578,19.7638,-49.1143,60.6439,-8.59616,-0.527854,3.54455,9.31324,2.28837,4.24322,-1.4218,38.4764,11,0,0,0
0,1405351004,503200,29.4613,19.4319,-48.7397,60.1758,-8.6009,-0.523966,3.56386,9.32475,2.23282,5.28641,-2.08276,38.4485,11,0,0,0
0,1405351005,504201,29.4327,19.4613,-49.0187,60.3975,-8.61061,-0.536848,3.52455,9.31951,1.14265,4.57821,-1.89338,38.436,11,0,0,0
0,1405351006,505203,29.3661,19.7192,-49.1545,60.5589,-8.57799,-0.511949,3.57622,9.30771,1.77156,4.59612,-0.431346,38.5481,10,0,0,0
0,1405351007,506207,29.5037,19.9673,-49.2884,60.8153,-8.58524,-0.539434,3.58695,9.32006,1.72088,3.70298,-1.18012,38.5077,11,0,0,0
0,1405351008,507211,29.2595,19.9502,-48.8329,60.3223,-8.60122,-0.544349,3.57223,9.32942,2.65402,4.1626,-2.03424,38.4999,10,0,0,0
0,1405351009,508215,29.475,20.2472,-48.8739,60.5589,-8.6016,-0.537102,3.59741,9.33903,2.37519,4.36531,-1.03283,38.4192,11,0,0,0
0,1405351010,509218,29.8005,19.6636,-48.6273,60.3269,-8.5885,-0.541869,3.59275,9.32544,1.21601,4.74473,-1.91408,38.4105,11,0,0,0
0,1405351011,510219,29.289,20.1858,-48.1261,59.8451,-8.60674,-0.540981,3.59077,9.34143,1.57454,3.95107,-1.03728,38.4466,11,0,0,0
0,1405351012,511223,29.5299,19.5699,-49.0931,60.5403,-8.59491,-0.5397,3.57623,9.32487,2.042,4.63231,-0.667937,38.5047,11,0,0,0
0,1405351013,512226,29.1527,20.0074,-48.8814,60.3288,-8.58649,-0.537768,3.53303,9.3005,3.78581,3.52919,-1.16482,38.4169,11,0,0,0
0,1405351014,513231,29.5253,19.3446,-48.6248,60.086,-8.57676,-0.555345,3.54636,9.29763,1.47011,4.10647,-0.414841,38.5208,11,0,0,0
0,1405351015,514237,29.6641,19.6108,-48.8441,60.4176,-8.60592,-0.533619,3.55562,9.32679,0.865938,5.52209,-0.203968,38.6073,11,0,0,0
0,1405351016,515239,29.5486,19.5595,-48.9897,60.4622,-8.59179,-0.52694,3.5539,9.31272,2.3061,4.36369,-0.757634,38.5258,11,0,0,0
0,1405351017,516240,29.4431,20.1052,-48.8084,60.4432,-8.57998,-0.546724,3.60713,9.32343,2.65492,5.16163,-2.76691,38.5084,11,0,0,0
0,1405351018,517243,29.6377,20.2275,-49.2944,60.9712,-8.57238,-0.533493,3.5803,9.30531,2.05538,5.58343,-2.35476,38.6624,12,0,0,0
0,1405351019,518245,29.5756,19.8459,-49.0176,60.5912,-8.60204,-0.534757,3.59549,9.33855,1.99355,3.81285,-0.811968,38.4755,12,0,0,0
0,1405351020,519249,29.2804,19.6439,-48.7842,60.1924,-8.61032,-0.525687,3.57938,9.33948,1.45922,4.33376,-0.636412,38.5366,11,0,0,0
0,1405351021,520254,29.5034,19.3995,-49.0993,60.4776,-8.59199,-0.527997,3.57386,9.3206,0.876718,4.97752,-1.0046,38.5237,11,0,0,0
0,1405351022,521257,29.712,19.797,-48.7368,60.4152,-8.58567,-0.495854,3.55618,9.30623,1.7038,4.91791,-1.13363,38.4042,11,0,0,0
0,1405351023,522267,29.4733,20.4039,-48.7823,60.5369,-8.5897,-0.540278,3.58648,9.32404,1.13562,5.21734,-0.453156,38.4001,11,0,0,0
0,1405351024,523272,29.4786,20.1661,-48.9749,60.6152,-8.5838,-0.543874,3.53802,9.30027,0.966299,4.32161,-0.384711,38.4463,11,0,0,0
0,1405351025,524274,29.4695,19.5181,-49.1359,60.5289,-8.60255,-0.557626,3.58104,9.33481,1.69196,5.21244,-1.69352,38.5378,11,0,0,0
0,1405351026,525277,29.113,19.5014,-48.2889,59.6632,-8.61428,-0.529445,3.61413,9.35672,0.78663,5.08323,-1.19655,38.391,11,0,0,0
0,1405351027,526280,29.3338,19.787,-48.7232,60.2158,-8.59203,-0.520284,3.56422,9.31651,2.32273,4.68738,-2.20029,38.3913,11,0,0,0
0,1405351028,527286,28.6768,19.2584,-48.7957,59.7852,-8.58144,-0.524737,3.55401,9.30309,2.50023,5.26303,-0.927763,38.48,10,0,0,0
0,1405351029,528288,29.5847,19.4358,-48.917,60.3811,-8.57675,-0.529543,3.59334,9.31414,3.19599,7.17202,-1.20791,38.5296,11,0,0,0
0,1405351030,529289,29.8165,20.1462,-48.4218,60.3288,-8.60202,-0.555361,3.59831,9.34082,2.5011,5.5005,-2.44827,38.515,11,0,0,0
0,1405351031,530290,29.1704,20.2344,-49.3031,60.7547,-8.58595,-0.532364,3.56975,9.3137,2.26906,5.29149,-2.22179,38.586,10,0,0,0
0,1405351032,531292,29.2037,19.7748,-48.924,60.3114,-8.59737,-0.548398,3.57694,9.32791,1.59164,4.64014,-0.59112,38.5168,9,0,0,0
0,1405351033,532296,29.2238,19.7635,-48.5655,60.0269,-8.58862,-0.538017,3.59351,9.32562,1.33305,4.52864,-1.15648,38.4558,10,0,0,0
0,1405351034,533299,29.2896,19.7728,-49.007,60.4196,-8.56667,-0.501718,3.56585,9.29273,1.85901,4.16456,-0.556297,38.5741,11,0,0,0
0,1405351035,534302,29.3462,19.9754,-48.8761,60.4077,-8.59169,-0.515187,3.58602,9.32428,1.73297,4.82771,-1.64038,38.5866,10,0,0,0
0,1405351036,535305,29.5774,19.8877,-48.5481,60.2268,-8.58091,-0.515877,3.56215,9.30522,2.87533,4.9204,-1.48336,38.5052,11,0,0,0
0,1405351037,536306,29.2184,19.8813,-49.0346,60.4431,-8.59314,-0.550614,3.57928,9.32505,1.88625,4.68767,0.106084,38.553,11,0,0,0
0,1405351038,537310,29.6441,19.7863,-48.8994,60.5096,-8.60633,-0.511114,3.56781,9.33056,1.62426,3.95851,-1.79814,38.5659,10,0,0,0
0,1405351039,538311,29.7327,19.6988,-48.865,60.4968,-8.59123,-0.550478,3.54787,9.31126,2.29584,4.76421,-0.549336,38.4968,10,0,0,0
0,1405351040,539313,29.717,19.9057,-49.1731,60.8056,-8.56873,-0.547794,3.55124,9.29164,2.21268,5.22713,-1.65297,38.5803,10,0,0,0
0,1405351041,540315,29.5499,20.1111,-48.6725,60.3876,-8.59679,-0.540976,3.60101,9.33621,1.8197,4.24268,-1.96571,38.5571,11,0,0,0
0,1405351042,541316,29.373,19.9598,-48.8178,60.3685,-8.60957,-0.533464,3.59335,9.3446,2.31455,4.72332,-0.00354765,38.4877,11,0,0,0
0,1405351043,542318,29.4452,20.1963,-49.2235,60.8101,-8.60278,-0.522424,3.59178,9.33711,2.07538,4.89544,-2.01812,38.4683,11,0,0,0
0,1405351044,543323,29.2842,19.7904,-49.1144,60.5099,-8.58942,-0.548477,3.56946,9.31772,1.98064,4.81442,-0.724076,38.4913,11,0,0,0
0,1405351045,544328,29.6335,19.9555,-49.0587,60.6887,-8.62356,-0.55348,3.5665,9.34837,1.2017,4.43862,-0.833809,38.4495,10,0,0,0
0,1405351046,545334,29.3069,19.2673,-48.7237,60.0344,-8.57719,-0.533785,3.53971,9.29423,1.76885,5.80044,-0.834304,38.5138,10,0,0,0
0,1405351047,546339,29.3152,19.4832,-48.2723,59.7427,-8.59499,-0.542684,3.57616,9.32509,1.69164,3.75021,-0.649374,38.4979,11,0,0,0
0,1405351048,547342,29.0287,19.8633,-48.5164,59.9255,-8.59743,-0.532603,3.58449,9.32996,2.27221,4.49366,-1.27894,38.4739,11,0,0,0
0,1405351049,548351,29.4613,19.9078,-48.5753,60.1984,-8.63176,-0.531281,3.54204,9.34535,2.04011,5.10802,0.532714,38.478,10,0,0,0
0,1405351050,549355,29.0212,19.3245,-48.8342,60.0037,-8.57387,-0.552365,3.58737,9.31051,1.83777,5.84757,0.114831,38.5021,10,0,0,0
0,1405351051,550360,29.4774,19.2832,-48.9181,60.2805,-8.58787,-0.535148,3.57367,9.31713,1.87473,4.6425,-2.21199,38.4569,10,0,0,0
0,1405351052,551364,29.5446,20.2473,-49.4089,61.0252,-8.58556,-0.538717,3.57834,9.317,1.89442,4.55137,0.32954,38.5329,11,0,0,0
0,1405351053,552366,29.4238,19.6097,-48.9929,60.4203,-8.60176,-0.533346,3.56817,9.32773,1.55977,4.59736,-1.2536,38.4792,10,0,0,0
0,1405351054,553371,29.9668,19.8208,-48.8265,60.621,-8.54919,-0.558501,3.5819,9.28604,2.25415,4.48685,-1.83153,38.5034,10,0,0,0
0,1405351055,554373,29.4694,19.3207,-48.961,60.3234,-8.57774,-0.54439,3.57181,9.30762,1.3235,5.6012,-0.515074,38.5297,10,0,0,0
0,1405351056,555378,29.5707,19.5985,-49.0909,60.5677,-8.59033,-0.546685,3.56747,9.3177,1.96556,4.464,-0.909007,38.5686,10,0,0,0
0,1405351057,556383,29.8631,19.2339,-48.8833,60.4262,-8.57103,-0.507853,3.55867,9.29433,2.24815,4.19281,-0.685117,38.4192,10,0,0,0
0,1405351058,557388,29.7087,20.184,-48.854,60.6359,-8.59126,-0.536871,3.55536,9.31336,1.99922,4.82984,-1.21012,38.4019,11,0,0,0
0,1405351059,558394,29.7105,19.831,-48.9951,60.6341,-8.58583,-0.535117,3.61006,9.32927,1.72239,4.31676,-0.18549,38.4509,11,0,0,0
0,1405351060,559396,29.1935,19.3424,-48.9226,60.1649,-8.58903,-0.537334,3.59003,9.32462,1.93636,5.01587,-0.581178,38.4291,10,0,0,0
0,1405351061,560398,29.4088,19.6567,-49.0477,60.4727,-8.57156,-0.549976,3.52464,9.28425,1.72717,4.33279,-0.308015,38.4655,10,0,0,0
0,1405351062,561402,29.8681,19.6474,-48.9306,60.5998,-8.59453,-0.539507,3.56834,9.32148,2.31204,4.93925,-1.66076,38.4265,11,0,0,0
0,1405351063,562407,29.4689,20.375,-49.0533,60.7436,-8.58976,-0.556123,3.54755,9.31012,2.44944,3.45674,-0.876986,38.5113,11,0,0,0
0,1405351064,563408,29.3333,19.8607,-48.9045,60.3866,-8.58266,-0.531375,3.56618,9.30924,0.525772,4.78078,-1.06194,38.4336,11,0,0,0
0,1405351065,564418,29.0401,20.2441,-48.6796,60.1902,-8.5971,-0.536591,3.574,9.32585,1.443,5.23508,-0.610583,38.5161,10,0,0,0
0,1405351066,565422,29.5013,20.1114,-49.2507,60.8312,-8.59804,-0.540829,3.56277,9.32267,1.6088,3.92981,-1.47537,38.5091,11,0,0,0
0,1405351067,566425,29.5692,19.5088,-48.9321,60.4093,-8.59104,-0.538503,3.55632,9.31362,2.16749,4.68631,-1.57196,38.4657,10,0,0,0
0,1405351068,567435,29.3238,19.8386,-48.6785,60.1918,-8.59312,-0.537659,3.57015,9.32077,1.60454,4.22625,-1.439,38.4944,9,0,0,0
0,1405351069,568440,29.6774,19.6699,-48.8762,60.4693,-8.58746,-0.545675,3.5819,9.32053,1.10315,5.15776,-1.11775,38.5325,11,0,0,0
0,1405351070,569444,29.6969,19.3019,-48.8149,60.3106,-8.61713,-0.515925,3.5822,9.3463,1.76598,4.12645,-0.900655,38.4082,11,0,0,0
0,1405351071,570446,29.2827,20.2159,-48.8582,60.4424,-8.59572,-0.558051,3.57911,9.3278,1.58114,5.24201,-0.485092,38.6355,11,0,0,0
0,1405351072,571452,29.4156,20.0249,-49.0336,60.5853,-8.57873,-0.52579,3.55465,9.30089,1.33864,3.89468,-0.281089,38.5701,11,0,0,0
0,1405351073,572453,29.9815,20.0496,-49.3181,61.0996,-8.61966,-0.532084,3.53954,9.33327,3.14568,4.43175,-1.60949,38.5879,10,0,0,0
0,1405351074,573458,29.2025,20.0161,-48.7603,60.2577,-8.5764,-0.522716,3.59804,9.31525,0.872759,4.97008,-1.68509,38.5923,11,0,0,0
0,1405351075,574464,29.588,20.2281,-48.8531,60.5908,-8.60273,-0.549553,3.58913,9.3376,1.47972,5.12277,-1.85114,38.5426,11,0,0,0
0,1405351076,575469,29.6116,19.9706,-49.106,60.7213,-8.59459,-0.5541,3.56554,9.32132,1.94354,4.61732,-0.422743,38.4634,10,0,0,0
0,1405351077,576472,29.1758,19.7549,-48.3896,59.8585,-8.59054,-0.531486,3.59662,9.32821,2.36813,4.07798,-1.6511,38.494,11,0,0,0
0,1405351078,577473,29.4611,20.3032,-48.8134,60.5221,-8.57539,-0.522776,3.56773,9.30265,2.32909,5.56197,-2.06237,38.5855,10,0,0,0
0,1405351079,578476,29.6659,19.924,-49.0709,60.704,-8.59806,-0.534877,3.57441,9.3268,1.76424,6.26416,-1.73634,38.5325,11,0,0,0
0,1405351080,579482,29.3939,19.6641,-48.8686,60.3226,-8.62078,-0.549444,3.54554,9.33759,1.89067,5.32994,-0.597658,38.5198,11,0,0,0
0,1405351081,580486,29.676,19.6689,-49.1941,60.7256,-8.60243,-0.548924,3.54833,9.32169,1.44144,5.17554,-1.28178,38.4944,11,0,0,0
0,1405351082,581490,29.5403,19.1196,-48.9976,60.3238,-8.60435,-0.533351,3.5529,9.32429,2.10836,4.59023,-1.23982,38.4585,10,0,0,0
0,1405351083,582492,29.6427,19.4227,-48.9239,60.4109,-8.58793,-0.549224,3.54269,9.30617,1.17539,4.52252,-0.00944689,38.4291,12,0,0,0
0,1405351084,583495,29.5729,19.5242,-48.6308,60.1723,-8.60667,-0.545375,3.57838,9.33686,2.03754,5.10555,-1.16848,38.422,10,0,0,0
0,1405351085,584498,29.7664,19.9685,-48.9595,60.678,-8.58304,-0.567087,3.58628,9.31941,2.27522,4.94314,-0.666509,38.4286,11,0,0,0
0,1405351086,585502,29.2355,19.507,-48.6605,60.0257,-8.57854,-0.547241,3.62087,9.32746,2.36411,4.82203,-0.587696,38.501,10,0,0,0
0,1405351087,586506,29.2359,19.9841,-49.196,60.6164,-8.60717,-0.524631,3.57598,9.33522,2.19765,5.78714,-0.886914,38.549,11,0,0,0
0,1405351088,587508,29.3848,20.2834,-49.1738,60.7696,-8.61012,-0.562252,3.58673,9.34425,1.63912,4.98168,-0.981652,38.5693,10,0,0,0
0,1405351089,588514,29.4373,20.5302,-48.9002,60.657,-8.59986,-0.526828,3.59685,9.33662,1.55172,4.55504,-1.28276,38.49,11,0,0,0
0,1405351090,589518,29.603,19.6169,-48.7633,60.3242,-8.57889,-0.545592,3.58863,9.31522,1.57244,4.33764,-0.881949,38.4718,10,0,0,0
0,1405351091,590521,29.5364,19.2775,-48.4396,59.9201,-8.59227,-0.53422,3.56916,9.31941,1.48436,3.95569,-1.54573,38.5255,11,0,0,0
0,1405351092,591527,29.095,19.5367,-49.2589,60.4536,-8.59941,-0.520409,3.56446,9.32341,2.16865,4.91554,-1.01684,38.6033,11,0,0,0
0,1405351093,592531,29.5599,19.3419,-48.5845,60.0696,-8.58952,-0.535573,3.572,9.31804,1.563,5.93894,-0.867477,38.4732,9,0,0,0
0,1405351094,593535,29.6322,19.8191,-48.5904,60.2652,-8.57631,-0.557231,3.56252,9.3035,1.14832,4.86024,-1.97881,38.472,10,0,0,0
0,1405351095,594541,29.3585,19.7607,-49.0422,60.4776,-8.5993,-0.524784,3.59192,9.33409,1.6982,4.8066,-2.1895,38.5057,10,0,0,0
0,1405351096,595547,29.1267,19.6322,-48.6129,59.975,-8.61232,-0.522159,3.56814,9.33683,1.8671,4.52583,-1.23503,38.5444,11,0,0,0
0,1405351097,596550,29.3761,19.5849,-48.1341,59.6943,-8.60824,-0.537948,3.55589,9.32928,1.21145,4.20306,-0.868085,38.5549,9,0,0,0
0,1405351098,597551,29.7526,19.2697,-48.9511,60.4379,-8.61815,-0.525591,3.5141,9.32189,2.1419,4.75545,-2.28576,38.5084,10,0,0,0
0,1405351099,598555,29.7866,19.7738,-48.8592,60.543,-8.60235,-0.546514,3.5844,9.33526,1.9692,5.54933,-1.48648,38.5727,11,0,0,0
0,1405351100,599560,29.2206,20.2537,-48.8609,60.4271,-8.59382,-0.537549,3.54942,9.31349,1.9642,4.73338,-1.57629,38.5612,10,0,0,0
0,1405351101,600569,29.3999,19.6102,-48.7036,60.1744,-8.58586,-0.518648,3.58885,9.32018,3.2081,5.22915,-0.566034,38.466,11,0,0,0
0,1405351102,601575,29.913,20.3728,-48.9511,60.8773,-8.60313,-0.515053,3.60666,9.34276,1.79456,4.34669,-0.940182,38.4308,10,0,0,0
0,1405351103,602576,29.3986,19.755,-48.877,60.3614,-8.58073,-0.529126,3.58574,9.31485,1.49215,5.21278,-0.19271,38.4846,11,0,0,0
0,1405351104,603583,29.5667,19.7933,-48.8223,60.4118,-8.58683,-0.550524,3.57654,9.31817,2.07285,3.72922,-0.913564,38.5197,10,0,0,0
0,1405351105,604588,29.4239,19.5758,-48.9932,60.4095,-8.58283,-0.558095,3.58112,9.3167,3.00055,4.86224,-2.00618,38.4656,10,0,0,0
0,1405351106,605592,29.3316,20.4744,-49.2264,60.8505,-8.59065,-0.54008,3.57652,9.32107,1.42189,5.23018,-0.938132,38.5037,10,0,0,0
0,1405351107,606598,29.3069,19.6086,-48.8437,60.242,-8.59479,-0.533807,3.55051,9.31459,1.70676,4.94237,-0.603946,38.4782,11,0,0,0
0,1405351108,607601,29.3331,19.778,-48.83,60.299,-8.5812,-0.545628,3.59856,9.32118,1.25581,4.70516,-0.830626,38.4007,11,0,0,0
0,1405351109,608606,29.4594,19.7179,-48.4591,60.0411,-8.59735,-0.542737,3.54434,9.31511,2.07489,4.91402,0.038596,38.5614,10,0,0,0
0,1405351110,609613,29.8425,19.6002,-49.058,60.6748,-8.59162,-0.544426,3.56689,9.31854,1.51261,4.85829,-1.09744,38.5399,11,0,0,0
0,1405351111,610614,28.9966,19.7937,-48.8694,60.1732,-8.60174,-0.544628,3.56571,9.32742,1.32961,4.38983,-1.60628,38.5563,10,0,0,0
0,1405351112,611620,29.509,20.3311,-48.8711,60.6013,-8.5985,-0.545733,3.5933,9.33508,1.44479,4.81635,-2.16648,38.5615,11,0,0,0
0,1405351113,612626,29.5826,20.5964,-48.6385,60.5396,-8.60376,-0.521423,3.57675,9.33219,3.3295,4.45106,-0.724783,38.6034,11,0,0,0
0,1405351114,613627,29.5983,20.21,-49.1466,60.8267,-8.59192,-0.54586,3.55788,9.31545,2.5736,5.68954,-0.663642,38.6465,10,0,0,0
0,1405351115,614632,28.7084,19.0704,-48.7358,59.6912,-8.60229,-0.522187,3.59016,9.33603,1.24886,3.93804,-1.90054,38.6225,9,0,0,0
0,1405351116,615634,29.2491,20.257,-48.6064,60.2365,-8.61038,-0.52608,3.56121,9.33261,2.16905,5.15232,-0.832728,38.6191,11,0,0,0
0,1405351117,616635,29.2312,20.1557,-49.0448,60.5483,-8.57935,-0.522471,3.58631,9.31342,0.806277,5.02755,-2.09519,38.7052,10,0,0,0
0,1405351118,617637,28.9644,19.7177,-48.7452,60.0318,-8.60674,-0.532529,3.57773,9.33593,1.96382,4.50898,-1.11629,38.5772,9,0,0,0
0,1405351119,618639,29.5817,20.1451,-48.7691,60.4924,-8.59629,-0.529108,3.60138,9.3352,1.83685,4.65973,-1.61927,38.5738,10,0,0,0
0,1405351120,619640,29.3897,20.3191,-48.994,60.6385,-8.59073,-0.53871,3.55034,9.31105,2.81613,5.03481,-0.180801,38.631,10,0,0,0
0,1405351121,620642,29.5379,19.526,-48.8119,60.3022,-8.60511,-0.541109,3.55177,9.32501,1.50816,5.07367,-1.68759,38.6571,10,0,0,0
0,1405351122,621647,29.2807,19.9624,-49.0232,60.4908,-8.60608,-0.529876,3.58086,9.33638,2.18775,4.61412,-2.18453,38.6129,10,0,0,0
0,1405351123,622649,29.4609,19.7429,-49.075,60.5482,-8.6014,-0.536535,3.57206,9.32907,1.77518,4.1405,-1.74524,38.609,10,0,0,0
0,1405351124,623654,29.5907,19.3214,-48.5366,60.0394,-8.59637,-0.542461,3.58001,9.32783,2.39135,4.11865,-0.509218,38.5456,11,0,0,0
0,1405351125,624656,29.6325,20.3923,-49.1585,60.9138,-8.58957,-0.535014,3.5695,9.31709,2.06452,6.22723,-1.83231,38.5204,11,0,0,0
0,1405351126,625664,29.4784,19.8737,-48.7999,60.3769,-8.58555,-0.540148,3.57719,9.31664,0.810919,5.13122,-2.41779,38.603,10,0,0,0
0,1405351127,626665,29.5832,19.7641,-48.6101,60.2389,-8.57597,-0.536783,3.55197,9.29796,1.66057,4.80652,-1.64687,38.6507,10,0,0,0
0,1405351128,627667,29.7432,20.065,-48.9776,60.713,-8.59696,-0.540134,3.58894,9.33166,2.13036,3.8626,-0.482454,38.6975,11,0,0,0
0,1405351129,628668,29.7966,19.7241,-48.6539,60.3662,-8.59982,-0.530301,3.54497,9.31692,3.51279,4.83814,-1.21759,38.5757,10,0,0,0
0,1405351130,629673,29.5855,19.513,-48.5457,60.1061,-8.61134,-0.535784,3.61121,9.35324,1.73803,5.31063,-0.944036,38.6421,10,0,0,0
0,1405351131,630678,29.8112,19.3328,-48.7841,60.3519,-8.60848,-0.527913,3.58178,9.33883,1.82714,3.31592,-1.45973,38.5434,11,0,0,0
0,1405351132,631683,29.4748,19.6555,-49.1219,60.5645,-8.58864,-0.531077,3.59301,9.32505,1.84328,5.37523,-1.72435,38.7832,11,0,0,0
0,1405351133,632686,29.8988,19.8601,-49.2348,60.9297,-8.59551,-0.524114,3.58754,9.32888,1.85543,5.57821,-1.12603,38.7335,10,0,0,0
0,1405351134,633693,29.3834,20.1935,-48.5283,60.2176,-8.6055,-0.546616,3.57178,9.33333,1.89748,4.59409,-1.0945,38.7012,11,0,0,0
0,1405351135,634694,29.6453,19.2603,-48.6603,60.1467,-8.60371,-0.53236,3.55557,9.32466,1.74277,5.28701,-0.713373,38.666,11,0,0,0
0,1405351136,635698,29.6488,19.6021,-48.6063,60.2151,-8.59151,-0.533555,3.58644,9.3253,1.79792,4.96346,-1.04669,38.6473,10,0,0,0
0,1405351137,636701,29.6269,20.1807,-49.2303,60.8985,-8.59091,-0.551118,3.53655,9.3067,1.69765,4.34271,-1.05432,38.6315,11,0,0,0
0,1405351138,637703,29.3324,20.049,-48.6648,60.2546,-8.60904,-0.54734,3.55847,9.33155,2.14805,4.21293,-0.466812,38.5019,11,0,0,0
0,1405351139,638704,29.3659,19.2829,-48.9622,60.2618,-8.59181,-0.525584,3.60708,9.33309,1.92341,4.13435,-0.71155,38.6628,10,0,0,0
0,1405351140,639710,29.416,20.2274,-48.4811,60.2069,-8.61821,-0.546967,3.54474,9.33477,2.14549,4.10564,-2.36308,38.6249,10,0,0,0
0,1405351141,640716,29.8274,20.2161,-48.7921,60.655,-8.59139,-0.535265,3.58226,9.32368,2.39849,4.67265,-1.02785,38.553,11,0,0,0
0,1405351142,641717,29.5535,19.9579,-48.6567,60.3258,-8.58424,-0.550765,3.56626,9.31186,1.68899,5.38924,-1.07199,38.7099,10,0,0,0
0,1405351143,642720,29.3433,19.8799,-48.5652,60.1233,-8.62428,-0.510038,3.58142,9.35227,1.11918,5.76739,-0.0301379,38.6687,11,0,0,0
0,1405351144,643722,29.0721,19.555,-48.8638,60.127,-8.60386,-0.548202,3.559,9.32702,1.6602,3.90608,-0.0193732,38.6723,11,0,0,0
0,1405351145,644724,29.4438,20.3795,-48.606,60.3722,-8.58275,-0.572265,3.56965,9.31308,1.55325,4.38782,-1.41668,38.8747,10,0,0,0
0,1405351146,645729,29.7337,19.806,-49.0026,60.6435,-8.60477,-0.526602,3.62398,9.35161,1.6592,3.73319,-1.7295,38.7712,11,0,0,0
0,1405351147,646732,29.5453,19.5995,-48.5306,60.1023,-8.60322,-0.54332,3.54751,9.32178,1.42706,3.66258,-1.879,38.8078,10,0,0,0
0,1405351148,647740,29.1431,20.2528,-48.5934,60.1732,-8.61144,-0.544012,3.59833,9.34884,2.11602,4.76998,-1.2546,38.7989,11,0,0,0
0,1405351149,648744,29.264,19.5074,-48.3355,59.7766,-8.61224,-0.515445,3.55613,9.3318,1.73279,3.87787,-0.929476,38.9733,11,0,0,0
0,1405351150,649750,29.4635,20.2236,-48.2578,60.0492,-8.57946,-0.556063,3.5335,9.29526,1.98336,4.81129,-0.838087,38.8377,11,0,0,0
0,1405351151,650751,29.0585,20.1628,-48.6348,60.1355,-8.61897,-0.551943,3.56519,9.34354,1.83306,5.29157,-1.51826,38.9219,10,0,0,0
0,1405351152,651752,29.037,19.5278,-48.5633,59.8571,-8.55656,-0.531423,3.57079,9.28696,2.40245,5.97637,-1.41602,38.8679,11,0,0,0
0,1405351153,652756,29.9339,19.8198,-49.0523,60.7864,-8.59808,-0.518866,3.59848,9.33516,1.48421,5.08128,-0.631582,38.836,10,0,0,0
0,1405351154,653759,29.9822,19.6362,-48.1864,60.0536,-8.57663,-0.568006,3.57034,9.30745,1.86681,5.01586,-0.623964,38.8714,11,0,0,0
0,1405351155,654763,29.3154,19.5086,-48.821,60.1953,-8.60627,-0.550444,3.57592,9.33585,2.65202,5.14552,-0.937282,39.079,10,0,0,0
0,1405351156,655767,29.3573,19.6856,-48.8045,60.2599,-8.57854,-0.527012,3.58217,9.31134,2.0926,4.92922,-2.20666,38.9507,10,0,0,0
0,1405351157,656771,29.509,19.4248,-48.9311,60.3519,-8.60149,-0.534956,3.61065,9.34391,2.00068,5.23588,-0.480392,39.084,11,0,0,0
0,1405351158,657772,29.4922,19.7376,-48.3229,59.9539,-8.58082,-0.538261,3.58121,9.31371,1.44528,5.0514,-0.779393,39.1265,10,0,0,0
0,1405351159,658774,29.1739,20.07,-49.0958,60.5336,-8.61631,-0.529988,3.55775,9.33698,1.7628,3.7532,-2.01246,39.1387,10,0,0,0
0,1405351160,659780,29.7413,19.7859,-48.7142,60.4078,-8.57053,-0.533521,3.57386,9.30114,1.57692,4.86119,-2.12353,39.0803,11,0,0,0
0,1405351161,660782,29.5395,20.0915,-49.0101,60.6485,-8.5955,-0.542923,3.6204,9.34263,1.48217,5.88817,-0.859627,39.0929,10,0,0,0
0,1405351162,661789,29.4835,19.875,-49.1131,60.6333,-8.59081,-0.52646,3.57503,9.31987,2.95312,5.02974,-0.0744877,39.1163,11,0,0,0
0,1405351163,662794,29.5184,19.624,-49.0047,60.4806,-8.5989,-0.539052,3.57124,9.3266,1.75696,4.73805,-1.04754,39.1779,11,0,0,0
0,1405351164,663799,29.5311,20.2619,-49.1716,60.8315,-8.5968,-0.529574,3.61055,9.33924,2.01629,6.19845,-0.58549,39.1629,9,0,0,0
0,1405351165,664802,29.5478,20.0611,-49.2428,60.8307,-8.58426,-0.53198,3.58482,9.31791,2.00694,5.94807,-2.60605,39.2581,10,0,0,0
0,1405351166,665803,29.1579,19.6539,-48.9396,60.2623,-8.58195,-0.547817,3.59104,9.31909,2.26777,4.32215,-1.85838,39.1104,11,0,0,0
0,1405351167,666807,29.4422,20.0844,-48.8448,60.4652,-8.59074,-0.530071,3.58279,9.32299,2.28176,3.97481,-1.23707,39.1216,11,0,0,0
0,1405351168,667809,29.0959,20.1892,-48.9214,60.3944,-8.5951,-0.544725,3.5786,9.32624,1.62972,3.79339,-0.575644,39.2027,10,0,0,0
0,1405351169,668811,29.7937,19.6698,-48.5416,60.2565,-8.58362,-0.546937,3.58526,9.31836,1.88145,5.09402,-0.946764,39.2265,10,0,0,0
0,1405351170,669814,29.3583,19.5495,-48.5399,60.0018,-8.59841,-0.541185,3.56475,9.32379,1.82801,4.75782,-1.72457,39.2504,10,0,0,0
0,1405351171,670816,29.1999,19.7666,-48.6149,60.0563,-8.60672,-0.531541,3.56591,9.33134,1.48552,4.95041,-1.01168,39.4292,11,0,0,0
0,1405351172,671821,29.281,19.7336,-48.9146,60.3277,-8.59196,-0.529586,3.57294,9.32031,2.37377,3.84542,-0.956359,39.4841,11,0,0,0
0,1405351173,672827,29.722,19.7709,-49.1236,60.7241,-8.58776,-0.582839,3.58056,9.32254,1.94844,4.1949,-1.07717,39.2211,10,0,0,0
0,1405351174,673832,29.6021,20.2453,-49.0823,60.7884,-8.59955,-0.522554,3.56949,9.32559,1.97405,4.3533,-0.280524,39.2206,11,0,0,0
0,1405351175,674833,29.4407,19.9303,-48.7024,60.2983,-8.59006,-0.536721,3.53377,9.30401,2.82887,4.43953,0.85882,39.2879,11,0,0,0
0,1405351176,675839,29.5819,19.4591,-48.9717,60.4316,-8.58561,-0.518665,3.55808,9.30814,2.86317,4.04298,-1.36677,39.271,12,0,0,0
0,1405351177,676842,29.4975,20.2169,-48.5644,60.3102,-8.59147,-0.54261,3.56722,9.31841,2.16079,4.46218,-0.725936,39.448,12,0,0,0
0,1405351178,677845,29.8713,19.7119,-49.0438,60.7136,-8.59336,-0.539804,3.61346,9.3378,2.0352,5.07056,-1.02882,39.4025,11,0,0,0
0,1405351179,678849,29.7868,19.4763,-48.8926,60.4737,-8.6181,-0.534151,3.63272,9.36769,2.33455,4.47469,-1.36678,39.4597,10,0,0,0
0,1405351180,679852,29.3065,20.0025,-48.7886,60.3266,-8.58851,-0.5368,3.56944,9.3162,2.13257,4.1592,-1.46755,39.3273,11,0,0,0
0,1405351181,680858,29.1952,19.7262,-48.5792,60.0118,-8.59443,-0.534918,3.55058,9.31434,1.70287,4.97411,-2.0874,39.2724,11,0,0,0
0,1405351182,681864,29.4168,20.2637,-48.7967,60.4738,-8.61244,-0.530837,3.58768,9.34491,1.92831,5.3094,-1.19305,39.3057,11,0,0,0
0,1405351183,682867,29.0108,19.3441,-48.4332,59.6791,-8.6164,-0.552431,3.57495,9.34493,1.73394,5.5032,-2.95828,39.2021,10,0,0,0
0,1405351184,683871,29.4028,19.9444,-48.9162,60.4574,-8.56623,-0.533361,3.6038,9.30871,1.19385,5.13938,-1.07893,39.2282,11,0,0,0
0,1405351185,684876,29.6381,19.5327,-48.7005,60.2635,-8.58806,-0.562949,3.58268,9.32241,1.09205,4.13137,0.114473,39.129,10,0,0,0
0,1405351186,685881,29.1627,19.7479,-48.7518,60.143,-8.60048,-0.545968,3.59379,9.33711,1.46923,4.78642,-0.570364,39.1688,10,0,0,0
0,1405351187,686884,29.7317,20.1967,-49.4087,61.0991,-8.58706,-0.542062,3.564,9.31308,1.22669,4.31139,-0.705564,39.0077,11,0,0,0
0,1405351188,687888,29.1471,20.2337,-48.0506,59.7312,-8.60298,-0.547313,3.53972,9.31882,2.08162,4.58346,-2.35666,39.0342,11,0,0,0
0,1405351189,688889,29.1319,19.6965,-48.9597,60.2799,-8.61142,-0.530405,3.54953,9.32937,2.10157,5.33141,-0.0560571,39.0158,10,0,0,0
0,1405351190,689892,29.2867,20.0541,-49.1289,60.6096,-8.59638,-0.55948,3.54847,9.31678,1.30602,4.45439,-0.976467,38.9199,9,0,0,0
0,1405351191,690893,29.4898,19.9445,-49.0783,60.6309,-8.60877,-0.519343,3.55793,9.3295,1.4637,5.72722,-0.896973,38.8156,10,0,0,0
0,1405351192,691898,29.1964,20.4715,-48.7952,60.4358,-8.60069,-0.536179,3.59395,9.3368,1.96463,5.52176,-1.74156,38.8253,11,0,0,0
0,1405351193,692900,29.3996,19.8995,-48.7742,60.3262,-8.58038,-0.535493,3.57336,9.31013,2.15305,5.82691,-0.598089,38.8938,10,0,0,0
0,1405351194,693903,29.6709,19.7329,-48.6673,60.3179,-8.60396,-0.545249,3.57746,9.334,1.43646,5.13036,-1.8254,38.9883,10,0,0,0
0,1405351195,694906,28.8001,19.3642,-49.0969,60.1243,-8.58723,-0.522929,3.56273,9.31166,1.11994,5.39965,-1.22418,38.8559,11,0,0,0
0,1405351196,695912,29.5533,19.5633,-48.6304,60.1751,-8.58419,-0.531427,3.5569,9.30711,1.34013,4.79681,-2.43195,38.8129,11,0,0,0
0,1405351197,696915,29.0424,19.7282,-48.4393,59.825,-8.60002,-0.528776,3.54041,9.31528,1.70077,4.73748,-2.12575,38.7926,10,0,0,0
0,1405351198,697917,29.7738,19.806,-48.8782,60.5626,-8.60146,-0.561306,3.56408,9.32753,1.5327,3.62355,-1.18932,38.8272,11,0,0,0
0,1405351199,698920,29.4682,20.0914,-48.9333,60.5517,-8.58845,-0.535452,3.53283,9.3021,1.73355,4.97737,-1.24212,38.8246,10,0,0,0
0,1405351200,699921,29.6026,19.9694,-48.8971,60.5477,-8.60911,-0.506848,3.57946,9.33735,2.4716,5.15954,-1.58212,38.6527,10,0,0,0
0,1405351201,700923,29.4252,19.9413,-48.9273,60.4763,-8.61364,-0.523,3.56063,9.33522,2.16225,3.946,-1.10419,38.6973,11,0,0,0
0,1405351202,701927,29.5154,19.6172,-48.9136,60.4031,-8.58326,-0.567747,3.57571,9.31559,1.28819,4.80173,-0.429473,38.7008,11,0,0,0
0,1405351203,702933,29.3451,19.662,-48.6306,60.1055,-8.57426,-0.547053,3.58453,9.30946,1.62789,5.2902,-1.03661,38.8132,11,0,0,0
0,1405351204,703937,29.409,20.0716,-49.0434,60.6054,-8.5887,-0.516461,3.57812,9.31856,1.79292,4.75691,-0.805111,38.6571,10,0,0,0
0,1405351205,704940,29.4894,19.7981,-48.7052,60.2809,-8.5768,-0.523627,3.56134,9.30155,1.42428,4.50279,-0.863039,38.7704,11,0,0,0
0,1405351206,705941,29.2049,19.874,-49.0771,60.4687,-8.59214,-0.516698,3.58349,9.3238,1.84179,4.13557,-1.66838,38.7834,11,0,0,0
0,1405351207,706947,29.4687,20.0775,-49.1823,60.7487,-8.60181,-0.553917,3.57497,9.33158,3.35822,4.20589,-1.48961,38.723,10,0,0,0
0,1405351208,707948,29.2687,20.3549,-48.5394,60.2249,-8.57347,-0.535947,3.576,9.30481,1.68472,4.54013,0.0873301,38.8049,11,0,0,0
0,1405351209,708953,29.7641,20.2227,-48.6575,60.5178,-8.5652,-0.522545,3.5959,9.3041,1.6591,4.87783,-0.77166,38.7267,11,0,0,0
0,1405351210,709954,29.7164,19.5641,-48.3834,60.0564,-8.60019,-0.533665,3.54075,9.31584,2.00744,3.89651,-2.28496,38.8421,11,0,0,0
0,1405351211,710958,29.191,19.753,-48.9817,60.3449,-8.60107,-0.525613,3.54038,9.31606,1.68445,4.73384,-1.30974,38.8788,10,0,0,0
0,1405351212,711959,29.9139,20.1096,-48.7031,60.5906,-8.61852,-0.555782,3.55966,9.34126,0.928788,4.71333,-1.95797,38.837,11,0,0,0
0,1405351213,712964,29.3965,19.6794,-48.5526,60.0731,-8.57634,-0.541787,3.56347,9.30298,1.64577,4.6687,-0.983501,38.9951,11,0,0,0
0,1405351214,713967,29.6463,20.044,-49.2033,60.841,-8.5894,-0.533342,3.57573,9.31923,1.71915,5.50202,-0.373133,39.114,11,0,0,0
0,1405351215,714968,29.1623,20.032,-48.6269,60.1356,-8.60548,-0.549847,3.54457,9.32312,2.20479,3.65096,-0.722832,38.9837,10,0,0,0
0,1405351216,715969,29.4311,19.6115,-48.7292,60.2108,-8.61503,-0.545265,3.55547,9.33581,1.89105,4.50372,-2.03782,38.8959,10,0,0,0
0,1405351217,716975,29.7318,19.7659,-48.9486,60.5858,-8.59495,-0.542556,3.58536,9.32858,1.18173,4.31868,-1.77785,39.1933,10,0,0,0
0,1405351218,717980,29.2839,19.9099,-48.9485,60.4144,-8.60034,-0.545767,3.59999,9.33936,2.19383,4.62659,-1.66822,39.1741,10,0,0,0
0,1405351219,718983,29.5888,20.357,-48.9512,60.7134,-8.58999,-0.548851,3.55187,9.31155,1.25826,4.70426,-0.735396,39.207,10,0,0,0
0,1405351220,719986,29.2456,19.5697,-48.3775,59.8219,-8.57827,-0.539614,3.545,9.29758,2.30983,4.43241,-0.701726,39.2466,10,0,0,0
0,1405351221,720989,29.7392,19.4205,-48.9637,60.4898,-8.60525,-0.532331,3.5533,9.32522,1.59543,4.41747,0.498225,39.268,10,0,0,0
0,1405351222,721992,29.3052,19.8162,-48.6702,60.1687,-8.58139,-0.536878,3.54424,9.30001,2.2552,4.32029,-1.28715,39.0699,10,0,0,0
0,1405351223,722993,29.2696,20.121,-48.5147,60.1269,-8.59473,-0.503573,3.57402,9.32183,1.07525,4.46126,-2.17782,39.0483,11,0,0,0
0,1405351224,723998,29.2304,19.568,-48.4972,59.9108,-8.59042,-0.55585,3.56102,9.31585,2.64602,3.50934,-2.04327,38.9038,11,0,0,0
0,1405351225,724999,29.9397,19.5845,-48.9214,60.6073,-8.60982,-0.522892,3.60067,9.34704,2.06403,4.78111,-0.546401,38.855,10,0,0,0
0,1405351227,726003,29.4289,19.655,-48.6481,60.1583,-8.58718,-0.542294,3.56336,9.31297,2.60664,5.05753,-1.4435,38.7983,12,0,0,0
0,1405351228,727006,29.7646,20.0908,-48.9948,60.7459,-8.60541,-0.540376,3.59458,9.34163,2.1589,4.80199,0.0699726,38.7793,11,0,0,0
0,1405351229,728012,29.8288,19.3207,-48.6108,60.2168,-8.5838,-0.54078,3.57392,9.3138,2.45437,4.84848,-0.559789,38.9311,10,0,0,0
0,1405351230,729014,29.52,19.9861,-49.2567,60.8037,-8.59001,-0.535868,3.5697,9.31762,1.48779,3.60491,-1.22807,38.938,11,0,0,0
0,1405351231,730022,29.6031,19.74,-48.6839,60.3003,-8.5756,-0.536576,3.56369,9.30208,2.32974,4.58414,-0.581763,38.7193,10,0,0,0
0,1405351232,731026,29.757,19.3758,-48.9031,60.4352,-8.60611,-0.550873,3.62128,9.3532,1.99368,5.40118,-1.07743,38.8943,10,0,0,0
0,1405351233,732027,29.375,20.0112,-48.9661,60.5063,-8.60451,-0.537832,3.57334,9.3325,0.986691,4.73826,-0.570509,38.7854,10,0,0,0
0,1405351234,733029,28.7819,19.2685,-48.742,59.7952,-8.59991,-0.528017,3.54253,9.31594,2.25836,5.22994,-1.72738,39.0572,11,0,0,0
0,1405351235,734032,29.5534,19.6901,-48.8536,60.3969,-8.60542,-0.514623,3.57279,9.33183,1.77451,4.81448,-1.50095,38.9228,11,0,0,0
0,1405351236,735033,29.2515,20.0118,-49.0756,60.5354,-8.58322,-0.524079,3.59799,9.32158,2.13137,5.96426,-1.38963,39.2116,10,0,0,0
0,1405351237,736037,29.3126,20.2716,-48.5971,60.2648,-8.58594,-0.530718,3.58515,9.31951,1.32099,4.58406,-1.22497,39.105,10,0,0,0
0,1405351238,737039,29.5929,19.3254,-48.5118,60.0217,-8.61402,-0.541426,3.57687,9.34283,1.75039,4.17304,-1.24318,39.1718,10,0,0,0
0,1405351239,738043,29.2206,19.8602,-49.2226,60.5898,-8.61249,-0.553025,3.58253,9.34427,2.17158,5.49807,-1.76631,39.2099,12,0,0,0
0,1405351240,739047,29.7799,19.4259,-48.7127,60.3086,-8.58239,-0.517513,3.5736,9.31106,2.64664,5.13251,-1.19633,39.312,10,0,0,0
0,1405351241,740049,29.8437,19.4719,-48.6988,60.3438,-8.59905,-0.558955,3.54893,9.31939,2.0421,3.2452,-1.23004,39.1436,11,0,0,0
0,1405351242,741050,29.0396,19.8949,-49.0351,60.3618,-8.60629,-0.517157,3.57129,9.33219,1.70141,4.74885,-0.830503,39.3376,11,0,0,0
0,1405351243,742054,28.9721,19.5817,-48.5054,59.7963,-8.60572,-0.508274,3.57418,9.33228,2.47096,5.53778,-0.750003,39.2817,11,0,0,0
0,1405351244,743059,29.409,20.2366,-48.8355,60.4923,-8.61042,-0.526681,3.57819,9.33917,1.62329,5.21643,-1.06443,39.1835,10,0,0,0
0,1405351245,744061,29.7027,20.2095,-48.7887,60.5889,-8.57605,-0.527539,3.5753,9.30644,1.7355,4.62018,-1.46646,39.3863,11,0,0,0
0,1405351246,745065,29.2743,19.6644,-48.8605,60.258,-8.57588,-0.523348,3.55981,9.3001,2.28543,5.02403,-0.41984,39.1608,11,0,0,0
0,1405351247,746068,29.4071,19.9378,-48.8307,60.3882,-8.59324,-0.531768,3.57904,9.32395,2.40066,4.44187,-0.714818,39.3379,10,0,0,0
0,1405351248,747073,29.6027,19.9685,-48.9638,60.6013,-8.61743,-0.52202,3.59532,9.35195,1.80173,4.60977,-1.73372,39.2416,9,0,0,0
0,1405351249,748077,29.5881,20.5092,-49.0503,60.8442,-8.60495,-0.533434,3.56545,9.32964,1.95443,5.21153,-1.09917,39.2131,11,0,0,0
0,1405351250,749079,29.8538,19.8553,-49.0447,60.7525,-8.57258,-0.565393,3.57892,9.30685,1.73206,4.72927,-1.49828,39.2347,11,0,0,0
0,1405351251,750080,28.9756,19.8769,-48.6934,60.0477,-8.61409,-0.521915,3.62127,9.35888,2.26425,4.7611,-1.51065,39.1403,10,0,0,0
0,1405351252,751085,29.1203,20.2024,-49.2479,60.6752,-8.59459,-0.521407,3.54805,9.31276,1.77516,4.00733,-0.123429,39.2469,12,0,0,0
0,1405351253,752091,29.167,19.9559,-49.1823,60.5627,-8.57423,-0.55159,3.5603,9.3004,1.06319,4.26539,-1.52367,39.14,12,0,0,0
0,1405351254,753095,29.3259,19.9429,-49.3192,60.7463,-8.59083,-0.55074,3.57283,9.32045,1.76713,3.40215,-0.674539,39.2561,11,0,0,0
0,1405351255,754100,29.3714,20.0795,-48.6466,60.2691,-8.58461,-0.571663,3.63563,9.34024,2.27234,5.03134,-0.490618,39.0683,10,0,0,0
0,1405351256,755102,29.5376,19.742,-48.6708,60.2583,-8.57428,-0.499025,3.57091,9.30155,0.9694,4.53346,-1.09814,39.0816,10,0,0,0
0,1405351257,756107,29.1544,20.1454,-48.9871,60.4611,-8.61486,-0.539271,3.58762,9.3476,1.82371,4.21543,-1.62815,39.1297,11,0,0,0
0,1405351258,757111,29.2223,19.5655,-48.3699,59.803,-8.61447,-0.534356,3.58179,9.34472,1.8396,4.98173,-1.71016,39.2074,10,0,0,0
0,1405351259,758116,29.5899,19.8284,-48.6684,60.3103,-8.58511,-0.537592,3.5967,9.32359,1.90702,4.07315,-0.605783,39.1289,10,0,0,0
0,1405351260,759119,29.5098,19.7501,-48.9615,60.4824,-8.60045,-0.540555,3.56579,9.32602,2.0793,4.47089,-0.27502,39.18,11,0,0,0
0,1405351261,760125,29.6161,19.7037,-48.8729,60.4475,-8.61235,-0.537193,3.59084,9.34641,1.65428,5.11791,-1.20791,39.1511,11,0,0,0
0,1405351262,761129,29.3799,20.1623,-49.1317,60.6929,-8.59094,-0.529167,3.60465,9.33155,1.37198,4.82081,-2.21995,39.2446,10,0,0,0
0,1405351263,762132,29.4503,20.0909,-48.651,60.3149,-8.60696,-0.532764,3.59412,9.34244,0.963525,5.71763,-0.00862858,39.2434,11,0,0,0
0,1405351264,763140,29.5411,20.3155,-48.9321,60.6609,-8.59333,-0.540639,3.55575,9.31563,2.66815,5.59814,-0.832877,39.3253,10,0,0,0
0,1405351265,764141,29.7275,20.3555,-49.0587,60.8673,-8.56267,-0.532451,3.57377,9.2938,2.99554,4.59617,-0.220497,39.3874,10,0,0,0
0,1405351266,765142,29.6631,20.1862,-48.7719,60.5481,-8.59258,-0.532594,3.55999,9.31609,2.10366,4.51408,-0.39272,39.3101,9,0,0,0
0,1405351267,766145,29.1678,19.7052,-49.0452,60.3696,-8.58975,-0.522851,3.60545,9.3304,1.59293,4.83756,-1.75146,39.3432,10,0,0,0
0,1405351268,767148,29.1505,19.72,-49.0172,60.3433,-8.57862,-0.537441,3.6084,9.32214,2.56253,4.06491,-1.66823,39.3692,11,0,0,0
0,1405351269,768149,29.2425,19.4903,-48.6883,60.0462,-8.59497,-0.562368,3.57202,9.32465,1.78527,4.51951,-1.01492,39.3568,11,0,0,0
0,1405351270,769150,29.4697,20.2807,-48.9034,60.5914,-8.58607,-0.505803,3.54632,9.30338,0.788044,4.48589,-1.24918,39.3705,11,0,0,0
0,1405351271,770152,29.3625,19.9943,-48.8797,60.4248,-8.61682,-0.5425,3.58038,9.34682,1.80202,3.8108,-1.22271,39.3453,11,0,0,0
0,1405351272,771154,29.7518,20.5367,-48.9302,60.8366,-8.57291,-0.535116,3.55624,9.29666,1.58829,5.86362,-0.0235987,39.3699,10,0,0,0
0,1405351273,772158,29.3325,19.9954,-48.5584,60.1509,-8.59527,-0.545108,3.5984,9.33404,1.91579,4.05554,-1.54841,39.4434,10,0,0,0
0,1405351274,773165,29.6422,19.9782,-48.7595,60.4589,-8.59674,-0.563525,3.56111,9.32218,2.37265,4.17459,-1.81951,39.4834,11,0,0,0
0,1405351275,774166,29.6704,19.9043,-48.4796,60.2228,-8.57995,-0.540488,3.59706,9.31915,2.36789,5.19796,-0.535909,39.5902,11,0,0,0
0,1405351276,775171,29.781,19.9298,-48.8162,60.5568,-8.579,-0.499372,3.54327,9.29534,1.6009,4.51666,-1.76439,39.52,11,0,0,0
0,1405351277,776176,29.632,19.5849,-48.8912,60.4316,-8.60241,-0.513134,3.54104,9.31685,2.06048,4.80876,-1.87593,39.5003,11,0,0,0
0,1405351278,777189,29.6428,19.2088,-48.9019,60.3247,-8.58849,-0.539603,3.57261,9.31756,1.70215,4.93105,-1.49192,39.7681,11,0,0,0
0,1405351279,778190,29.3394,20.0926,-48.6957,60.2975,-8.60121,-0.543363,3.59136,9.3367,1.59388,4.74039,-1.21825,39.7027,11,0,0,0
0,1405351280,779191,29.6192,20.1881,-48.9343,60.6583,-8.59417,-0.540923,3.58178,9.32639,2.69856,6.01338,-1.67482,39.7276,10,0,0,0
0,1405351281,780195,29.3583,20.0482,-48.8623,60.4265,-8.61658,-0.518264,3.58722,9.34785,2.20186,5.23088,-1.11177,39.6653,10,0,0,0
0,1405351282,781201,29.0292,20.1596,-48.593,60.0864,-8.5789,-0.546131,3.60692,9.32232,2.68701,6.31755,-1.2374,39.6317,10,0,0,0
0,1405351283,782205,29.6045,20.5271,-48.576,60.4766,-8.5884,-0.546552,3.56556,9.31518,2.99519,5.34663,-1.44399,39.7356,12,0,0,0
0,1405351284,783207,29.6364,20.2212,-49.1749,60.8719,-8.59338,-0.545318,3.58969,9.32896,1.32982,5.28775,-1.67315,39.5755,10,0,0,0
0,1405351285,784209,29.5317,19.4106,-48.7372,60.2014,-8.5692,-0.558242,3.58293,9.30485,1.59826,5.6542,-2.29622,39.6907,11,0,0,0
0,1405351286,785215,29.352,19.6142,-49.2276,60.5774,-8.60215,-0.543935,3.60206,9.34171,2.01097,4.29585,-1.70732,39.6738,11,0,0,0
0,1405351287,786221,29.5374,20.3218,-48.8696,60.6108,-8.60686,-0.546684,3.53845,9.32189,2.84284,5.20053,-2.09704,39.6769,11,0,0,0
0,1405351288,787224,29.8439,19.6106,-48.9515,60.5928,-8.57148,-0.551432,3.52408,9.28405,2.03027,5.69521,-1.08461,39.5602,10,0,0,0
0,1405351289,788228,28.9507,19.4986,-48.5662,59.8082,-8.56884,-0.541778,3.53437,9.28495,2.30879,4.7908,-1.93605,39.7028,9,0,0,0
0,1405351290,789233,29.4346,19.6697,-48.3449,59.921,-8.59104,-0.550291,3.6016,9.33169,1.90371,4.32134,-1.80093,39.5762,11,0,0,0
0,1405351291,790236,29.2555,19.5928,-48.5055,59.9378,-8.5974,-0.521805,3.5673,9.32273,2.12087,5.34905,-0.687801,39.7209,10,0,0,0
0,1405351292,791238,29.2225,19.5306,-48.5688,59.9527,-8.57916,-0.538266,3.59373,9.317,1.3901,5.6702,-0.463437,39.7978,9,0,0,0
0,1405351293,792246,29.6284,19.487,-48.7057,60.2481,-8.61033,-0.52812,3.58763,9.3428,1.5879,5.5862,-0.974124,39.8149,12,0,0,0
0,1405351294,793251,29.3927,19.8153,-48.7796,60.2994,-8.60884,-0.529144,3.62081,9.35427,1.12064,3.98653,-0.586576,39.7721,11,0,0,0
0,1405351295,794257,29.6231,19.993,-48.9975,60.6465,-8.58293,-0.510787,3.55894,9.30557,2.2804,5.02187,-2.01499,39.79,10,0,0,0
0,1405351296,795259,29.0278,19.479,-48.535,59.8138,-8.58616,-0.535313,3.59634,9.32429,1.8868,4.6959,-0.301791,39.7421,12,0,0,0
0,1405351297,796260,29.2879,19.7702,-48.6018,60.0898,-8.58594,-0.540926,3.59646,9.32446,2.52796,4.61613,-1.19219,39.8184,11,0,0,0
0,1405351298,797261,29.3572,20.3184,-49.1169,60.7219,-8.61505,-0.523981,3.58212,9.34479,2.03519,5.05285,-1.02281,39.8248,11,0,0,0
0,1405351299,798262,29.2141,20.2626,-48.9097,60.4665,-8.60063,-0.522681,3.6126,9.34317,2.89726,4.71031,-1.89513,39.8213,11,0,0,0
0,1405351300,799265,29.4498,20.1523,-48.953,60.5789,-8.56606,-0.54746,3.56851,9.29577,2.47279,4.9332,-1.69311,39.9456,11,0,0,0
0,1405351301,800267,29.0919,19.9426,-48.79,60.2039,-8.58698,-0.541682,3.62665,9.33715,1.86714,4.6147,0.420461,40.0355,12,0,0,0
0,1405351302,801272,29.3555,20.1417,-49.4504,60.9326,-8.60882,-0.566824,3.57012,9.33696,1.95267,4.75446,-1.34216,39.9302,11,0,0,0
0,1405351303,802273,29.696,19.883,-48.8803,60.5514,-8.60264,-0.544752,3.59489,9.33945,1.52858,4.9132,-1.73511,39.9043,11,0,0,0
0,1405351304,803275,29.8624,19.3951,-48.4904,60.1602,-8.59149,-0.534879,3.61822,9.33763,1.7321,4.92636,-1.09854,39.9266,10,0,0,0
0,1405351305,804281,29.6226,19.5528,-48.5908,60.1737,-8.57773,-0.534674,3.58501,9.31212,0.952464,4.83598,-0.72482,39.8793,11,0,0,0
0,1405351306,805287,29.5512,19.7735,-48.2828,59.9624,-8.59639,-0.534678,3.58256,9.32837,1.69813,4.77612,-0.7833,39.9355,11,0,0,0
0,1405351307,806292,29.3592,20.262,-48.5947,60.2823,-8.58031,-0.518549,3.57802,9.3109,1.26251,4.00138,-1.79491,39.936,11,0,0,0
0,1405351308,807295,29.5269,20.0828,-49.2284,60.8161,-8.6149,-0.55955,3.5724,9.343,1.02177,3.60157,-1.2134,39.9059,11,0,0,0
0,1405351309,808303,29.2254,20.1321,-48.8498,60.3799,-8.59034,-0.554966,3.58639,9.32545,2.50495,4.61828,-1.0577,39.8491,10,0,0,0
0,1405351310,809308,29.643,19.6161,-48.7825,60.3592,-8.58663,-0.548935,3.59063,9.32331,1.83303,5.63116,-1.31741,39.9495,11,0,0,0
0,1405351311,810311,29.8002,20.2566,-49.179,60.9668,-8.59045,-0.556868,3.57112,9.31981,1.81929,5.12317,-1.10319,39.9691,10,0,0,0
0,1405351312,811315,28.9404,19.5743,-48.8873,60.0888,-8.59549,-0.542241,3.56108,9.31975,1.85691,5.57902,-1.6881,39.9325,11,0,0,0
0,1405351313,812320,29.6261,19.6667,-49.0755,60.6044,-8.60006,-0.532561,3.60009,9.33838,2.25523,4.23595,-1.01752,40.0215,10,0,0,0
0,1405351314,813322,29.428,20.0625,-49.0586,60.6239,-8.59161,-0.516803,3.58163,9.3226,0.923048,5.18762,-1.67531,39.9428,10,0,0,0
0,1405351315,814326,29.325,19.7893,-48.7628,60.2444,-8.58779,-0.55136,3.59103,9.32468,1.88069,4.54335,-1.95183,39.9592,11,0,0,0
0,1405351316,815328,29.5544,20.0273,-48.7637,60.4355,-8.5955,-0.543197,3.57912,9.32672,2.51707,5.78614,-1.16421,39.9241,11,0,0,0
0,1405351317,816331,29.5522,19.7431,-48.3923,60.0411,-8.61539,-0.52342,3.5641,9.33819,2.10539,5.9666,-1.06304,39.8751,10,0,0,0
0,1405351318,817337,29.7208,19.4653,-49.1496,60.6458,-8.58801,-0.521876,3.58332,9.32022,2.29084,5.88897,-1.40318,39.8825,11,0,0,0
0,1405351319,818339,29.4384,19.9073,-48.5671,60.1804,-8.59976,-0.550888,3.55782,9.32295,0.98225,4.54582,-0.691684,39.8324,11,0,0,0
0,1405351320,819343,29.3718,19.6628,-48.6537,60.1374,-8.60529,-0.537457,3.54179,9.32116,1.51346,4.50674,-1.75534,39.8788,11,0,0,0
0,1405351321,820345,29.2602,19.6767,-48.9158,60.3,-8.59833,-0.520964,3.57222,9.32542,2.41911,5.03008,-0.584535,39.8981,11,0,0,0
0,1405351322,821349,29.0256,19.7274,-48.558,59.9128,-8.58603,-0.540386,3.58066,9.31842,1.35877,5.69656,-0.710965,39.8393,11,0,0,0
0,1405351323,822353,29.5739,20.0306,-48.849,60.515,-8.59329,-0.527461,3.59359,9.32934,2.05238,6.00943,-0.187851,39.8268,11,0,0,0
0,1405351324,823359,29.4725,19.6881,-49.0873,60.5459,-8.59749,-0.5405,3.59527,9.3346,1.80684,5.99281,-0.897309,39.8847,10,0,0,0
0,1405351325,824360,29.6754,19.5906,-48.7411,60.3333,-8.59564,-0.534874,3.57834,9.32607,2.11185,5.42575,-2.25597,39.8987,11,0,0,0
0,1405351326,825362,29.1865,20.0581,-48.9014,60.3782,-8.60169,-0.540274,3.57179,9.32945,0.848171,4.24496,-0.374181,39.8301,11,0,0,0
0,1405351327,826365,29.44,20.0532,-48.655,60.3005,-8.60181,-0.5263,3.61198,9.34422,1.74788,4.61824,-1.49288,39.9057,10,0,0,0
0,1405351328,827366,29.2061,19.4933,-48.6503,59.9987,-8.59293,-0.562996,3.56496,9.3201,2.37184,5.04921,-0.468419,39.845,10,0,0,0
0,1405351329,828367,29.4438,19.9757,-48.5089,60.1588,-8.6191,-0.503998,3.58851,9.34988,1.7278,4.85654,0.381023,39.8435,11,0,0,0
0,1405351330,829370,29.3225,20.1203,-48.5986,60.2201,-8.59304,-0.514303,3.61969,9.33847,1.51556,4.66376,-1.96764,39.9052,9,0,0,0
0,1405351331,830376,29.2677,19.6654,-48.3695,59.8576,-8.5679,-0.515536,3.55594,9.29083,0.985728,4.31723,-2.34577,39.9043,10,0,0,0
0,1405351332,831382,29.4714,19.7852,-48.9479,60.4642,-8.60672,-0.529775,3.54457,9.3231,1.68732,4.85226,-1.87615,39.8402,10,0,0,0
0,1405351333,832384,29.743,19.9423,-48.9216,60.6272,-8.58079,-0.54268,3.56669,9.30837,0.799755,3.58985,-1.05432,39.9102,10,0,0,0
0,1405351334,833386,29.3191,19.9554,-48.991,60.481,-8.5731,-0.556588,3.5752,9.30537,2.36063,5.32265,-1.47981,39.8183,9,0,0,0
0,1405351335,834388,28.7287,19.6646,-48.3991,59.6197,-8.59778,-0.545981,3.55562,9.31999,1.86188,4.75718,-0.695423,40.005,10,0,0,0
0,1405351336,835390,29.5165,19.7559,-48.6418,60.2291,-8.59899,-0.538639,3.59684,9.33649,0.768556,4.83473,-0.180547,39.9354,11,0,0,0
0,1405351337,836392,29.6069,20.0061,-48.8401,60.5158,-8.63226,-0.537556,3.57336,9.35808,1.03786,3.86393,-1.49455,39.9749,10,0,0,0
0,1405351338,837394,28.7087,19.7519,-48.4864,59.7098,-8.59037,-0.518789,3.6002,9.32872,2.18572,5.07783,-2.44546,40.1401,9,0,0,0
0,1405351339,838399,28.991,19.8666,-48.6416,60.0097,-8.59229,-0.537869,3.57788,9.32298,2.76792,4.8663,-1.71841,39.9353,11,0,0,0
0,1405351340,839400,29.3539,19.6907,-48.0025,59.6122,-8.61565,-0.538423,3.62651,9.36328,2.36172,5.01341,-1.75761,39.928,10,0,0,0
0,1405351341,840405,28.901,19.5726,-48.4545,59.7176,-8.56941,-0.555885,3.5622,9.29694,2.55523,5.08673,-2.05623,39.9893,11,0,0,0
0,1405351342,841406,29.649,20.2413,-48.9894,60.7349,-8.59178,-0.53538,3.57596,9.32163,1.42703,5.63736,-0.169456,39.8778,11,0,0,0
0,1405351343,842411,29.5125,19.4293,-49.0359,60.4401,-8.59942,-0.533086,3.62968,9.34927,1.47789,4.89,-1.44822,39.9986,11,0,0,0
0,1405351344,843414,29.2046,20.0095,-48.9207,60.3864,-8.60507,-0.533152,3.60004,9.34301,0.787739,6.09684,-0.627359,39.895,11,0,0,0
0,1405351345,844418,29.8479,19.6542,-48.7567,60.4517,-8.6124,-0.527776,3.56338,9.3354,2.28394,4.83825,-0.752467,40.0102,11,0,0,0
0,1405351346,845422,29.5329,19.44,-48.778,60.2445,-8.58687,-0.531213,3.58422,9.32004,1.87931,5.95428,-0.470619,39.8872,10,0,0,0
0,1405351347,846424,29.4273,19.9364,-48.9191,60.4691,-8.61004,-0.531758,3.59358,9.34502,2.17225,4.65016,-1.32419,39.913,10,0,0,0
0,1405351348,847430,29.1435,19.7253,-48.1688,59.6545,-8.57897,-0.538609,3.58312,9.31276,2.64253,5.0541,-1.36652,40.0306,10,0,0,0
0,1405351349,848433,29.5759,20.2052,-48.5308,60.3177,-8.57774,-0.52825,3.54172,9.29519,1.53176,5.1887,-0.992876,40.118,10,0,0,0
0,1405351350,849434,29.6429,20.1433,-48.8258,60.5674,-8.5972,-0.547305,3.57352,9.32639,0.97384,5.22349,-1.13433,40.1154,11,0,0,0
0,1405351351,850437,29.5918,19.4102,-48.8046,60.2854,-8.59431,-0.556968,3.58196,9.32753,1.29925,5.37542,-0.578409,40.1207,11,0,0,0
0,1405351352,851441,29.4094,19.8302,-48.6287,60.1906,-8.59057,-0.511282,3.58944,9.32435,2.18522,5.4513,-1.68959,40.0219,10,0,0,0
0,1405351353,852445,29.3753,19.6897,-48.7068,60.1909,-8.60029,-0.519034,3.59059,9.33417,1.65911,5.64774,-0.536919,40.2886,11,0,0,0
0,1405351354,853452,29.2605,19.9391,-48.9532,60.4165,-8.62033,-0.489568,3.61782,9.36154,1.86684,6.78914,-2.00063,40.0473,11,0,0,0
0,1405351355,854456,29.1648,19.4733,-48.7967,60.0908,-8.59649,-0.502421,3.57175,9.32252,1.68772,5.28848,-1.04081,40.0553,11,0,0,0
0,1405351356,855461,29.0765,19.8874,-48.5963,60.0212,-8.61633,-0.523434,3.5773,9.3441,1.83224,5.57598,-1.77198,40.1653,10,0,0,0
0,1405351357,856463,29.5353,19.3948,-48.7584,60.2153,-8.59842,-0.533204,3.61378,9.34219,2.86405,5.65671,-1.21515,39.9954,10,0,0,0
0,1405351358,857465,29.14,19.5966,-48.3793,59.7806,-8.56974,-0.555887,3.58055,9.30428,2.65311,5.20695,-1.10136,40.1209,10,0,0,0
0,1405351359,858469,29.4512,19.5623,-48.9778,60.4059,-8.59639,-0.537011,3.60152,9.3358,2.17164,5.44897,-0.207999,40.0038,11,0,0,0
0,1405351360,859473,29.4779,20.0202,-48.925,60.5261,-8.58997,-0.52472,3.56144,9.31379,2.35487,5.21868,0.194334,40.0222,10,0,0,0
0,1405351361,860474,29.2631,19.8039,-48.7151,60.1804,-8.58566,-0.529325,3.57493,9.31524,1.80889,5.19845,-0.705186,40.1679,10,0,0,0
0,1405351362,861479,29.5332,20.0029,-48.303,60.0458,-8.57511,-0.534576,3.5729,9.30504,2.18855,4.19366,-1.88742,40.0984,10,0,0,0
0,1405351363,862485,29.4981,20.0514,-49.2202,60.7851,-8.59846,-0.533817,3.57216,9.32624,1.26619,4.89777,-2.06204,40.3118,10,0,0,0
0,1405351364,863486,29.4907,19.6393,-48.5004,60.0641,-8.60124,-0.545224,3.57554,9.33076,1.45335,5.23301,-0.84858,40.1653,11,0,0,0
0,1405351365,864489,29.8371,19.9728,-48.6045,60.4282,-8.59946,-0.533647,3.56993,9.3263,3.13357,4.64337,-0.896996,40.2481,10,0,0,0
0,1405351366,865491,29.4526,19.6306,-48.6704,60.1799,-8.6163,-0.522923,3.55641,9.33607,2.34967,3.80519,-0.696933,40.2635,11,0,0,0
0,1405351367,866492,29.4284,19.6869,-48.217,59.8205,-8.58003,-0.526517,3.54403,9.29808,1.12989,4.73785,-1.68809,40.2067,11,0,0,0
0,1405351368,867495,30.001,19.9248,-48.8751,60.7111,-8.59082,-0.550001,3.57487,9.32118,2.30857,4.7441,-1.05301,40.2595,10,0,0,0
0,1405351369,868500,29.3382,19.6421,-48.3642,59.8802,-8.61615,-0.557606,3.60204,9.35541,1.25947,5.27105,-1.38106,40.0985,10,0,0,0
0,1405351370,869506,29.3587,20.1646,-48.2223,59.9494,-8.605,-0.619756,3.59978,9.34818,1.83497,5.14562,-1.84437,40.0782,9,0,0,0
0,1405351371,870508,29.8507,19.7179,-48.074,59.9247,-8.61017,-0.497282,3.61966,9.3533,3.57127,5.53892,-1.72498,40.0881,10,0,0,0
0,1405351372,871513,29.203,19.9656,-48.0703,59.6842,-8.5791,-0.577228,3.56235,9.30722,1.52484,5.1502,-1.21661,40.0322,10,0,0,0
0,1405351373,872519,29.6348,19.9913,-47.9672,59.8225,-8.59331,-0.544652,3.60834,9.33605,1.79361,5.22997,-2.69778,40.1472,9,0,0,0
0,1405351374,873523,29.329,20.0313,-48.056,59.7563,-8.58472,-0.533563,3.58125,9.31705,0.839242,4.34961,-1.28819,40.176,10,0,0,0
0,1405351375,874528,29.1407,19.8625,-48.3727,59.8634,-8.60609,-0.526898,3.56503,9.33016,1.59751,5.41793,-1.97475,40.2093,9,0,0,0
0,1405351376,875534,29.3897,19.925,-49.1017,60.5949,-8.58401,-0.535091,3.55851,9.30777,1.41498,4.70207,-1.72828,40.1327,11,0,0,0
0,1405351377,876535,29.6145,20.0078,-49.0673,60.7036,-8.59299,-0.529104,3.56136,9.31679,2.36326,5.166,-2.45552,40.0427,9,0,0,0
0,1405351378,877540,28.9654,19.7845,-48.8319,60.1246,-8.57654,-0.555582,3.59163,9.3148,2.03049,3.51302,-1.33411,40.091,11,0,0,0
0,1405351379,878541,29.4728,19.7823,-48.4095,60.0289,-8.59998,-0.545657,3.61766,9.34585,1.36672,4.65348,-1.66756,40.0593,10,0,0,0
0,1405351380,879542,29.2989,20.2012,-48.657,60.2828,-8.57942,-0.528408,3.59458,9.31701,1.85978,5.51894,-1.61167,40.0532,10,0,0,0
0,1405351381,880546,29.2369,20.0671,-48.7059,60.2474,-8.61243,-0.524907,3.57762,9.34071,2.04201,5.67523,-2.09971,40.093,10,0,0,0
0,1405351382,881548,29.3397,20.0249,-48.8307,60.3842,-8.57454,-0.504897,3.60289,9.31442,2.54345,4.48655,-1.61553,40.1323,10,0,0,0
0,1405351383,882551,29.2494,20.3931,-47.9379,59.7448,-8.58696,-0.566672,3.56775,9.31589,1.57999,5.41924,-1.20214,40.0821,10,0,0,0
0,1405351384,883553,29.2555,19.9566,-48.826,60.3169,-8.60342,-0.528332,3.57711,9.3324,2.15245,5.37846,0.493781,40.1712,10,0,0,0
0,1405351385,884554,29.8242,19.4338,-48.6069,60.2477,-8.5924,-0.538067,3.62619,9.34174,1.13765,4.6487,-1.51208,40.1218,11,0,0,0
0,1405351386,885556,29.3378,20.1242,-48.9471,60.5104,-8.61434,-0.498758,3.54916,9.33018,2.73633,4.41457,-0.814011,40.096,11,0,0,0
0,1405351387,886560,29.2554,20.6261,-48.6985,60.4389,-8.58253,-0.576087,3.59027,9.32103,2.11841,4.46861,-1.15931,40.1006,10,0,0,0
0,1405351388,887565,29.2745,19.9396,-48.5002,60.0571,-8.60227,-0.54653,3.57756,9.33256,1.3716,4.73228,-1.74366,40.0762,10,0,0,0
0,1405351389,888567,29.5555,19.9466,-48.9028,60.5217,-8.5949,-0.520525,3.55283,9.31482,2.06624,5.25975,-1.14161,39.9816,11,0,0,0
0,1405351390,889569,29.4697,19.5676,-48.4396,59.9813,-8.6107,-0.533049,3.60654,9.35069,1.89682,4.9892,-1.02701,40.061,11,0,0,0
0,1405351391,890572,29.3913,19.7508,-48.8728,60.3531,-8.58914,-0.532434,3.60046,9.32845,1.63345,5.18066,-0.971807,40.0034,10,0,0,0
0,1405351392,891579,29.2797,19.4043,-48.3371,59.752,-8.59179,-0.529304,3.55496,9.31326,1.12191,5.22267,-2.03294,39.886,11,0,0,0
0,1405351393,892585,29.2654,19.8987,-48.7392,60.2324,-8.57972,-0.550685,3.53555,9.29596,1.9067,4.86656,-2.31832,39.9967,10,0,0,0
0,1405351394,893589,29.3672,20.2442,-48.7063,60.3703,-8.58062,-0.513251,3.57493,9.30971,1.69157,4.24155,-1.12349,39.8946,10,0,0,0
0,1405351395,894591,28.8761,19.7542,-49.0449,60.245,-8.60969,-0.517631,3.55194,9.32797,0.879314,5.5555,-0.340374,39.9841,12,0,0,0
0,1405351396,895596,29.0142,20.1203,-49.0794,60.4603,-8.5776,-0.53773,3.58261,9.31125,1.52441,4.64866,-0.793715,39.9042,11,0,0,0
0,1405351397,896599,29.4885,19.7128,-48.7917,60.3225,-8.59466,-0.531029,3.58377,9.32704,1.92147,4.23843,-1.20723,39.9403,10,0,0,0
0,1405351398,897601,29.1706,19.5066,-48.363,59.7529,-8.59017,-0.537955,3.60852,9.33283,2.39562,4.40857,-1.34567,40.0248,10,0,0,0
0,1405351399,898608,29.2488,19.4987,-48.5028,59.9017,-8.59638,-0.54146,3.59267,9.33264,1.88827,4.05496,-1.01323,39.9866,11,0,0,0
0,1405351400,899612,29.6321,20.4534,-48.7985,60.6441,-8.58275,-0.523017,3.59493,9.31991,1.68574,5.05921,-2.42692,39.9561,10,0,0,0
0,1405351401,900613,29.4469,19.8998,-48.833,60.3969,-8.59465,-0.521095,3.55075,9.31383,1.34362,5.06399,-0.119477,39.9665,11,0,0,0
0,1405351402,901615,29.2099,19.3789,-48.7045,60.0074,-8.58368,-0.552313,3.58857,9.32,1.42851,5.38525,-1.55953,40.1244,12,0,0,0
0,1405351403,902620,29.3222,19.9587,-48.823,60.3475,-8.58549,-0.542579,3.57149,9.31453,1.6049,5.56329,-0.361692,40.04,10,0,0,0
0,1405351404,903624,29.2859,19.9977,-48.8061,60.3291,-8.59644,-0.520946,3.59813,9.33364,2.05419,5.21499,-0.876576,40.0602,10,0,0,0
0,1405351405,904626,29.3063,19.9635,-48.3628,59.9697,-8.59932,-0.538077,3.57357,9.32782,1.51803,5.94819,-0.983801,40.0336,10,0,0,0
0,1405351406,905630,29.7952,19.6855,-48.5589,60.2764,-8.59031,-0.552473,3.60637,9.33298,2.29733,4.60124,-1.21196,40.051,11,0,0,0
0,1405351407,906631,29.1976,20.1422,-48.1764,59.8262,-8.59183,-0.538108,3.532,9.30506,0.704366,5.50745,-0.950243,40.0582,10,0,0,0
0,1405351408,907635,29.4468,20.0755,-48.5299,60.2103,-8.58421,-0.545972,3.5835,9.31817,1.69299,6.08415,-1.46702,40.2015,9,0,0,0
0,1405351409,908636,29.9624,20.0417,-47.7261,59.8097,-8.60143,-0.518404,3.56744,9.3263,0.604685,5.14926,-1.26751,40.0692,10,0,0,0
0,1405351410,909642,29.4957,19.9815,-47.8385,59.6471,-8.59613,-0.544889,3.60448,9.33716,1.47416,5.24878,-1.03444,40.139,11,0,0,0
0,1405351411,910643,29.2139,20.0281,-48.4085,59.983,-8.60135,-0.554822,3.54681,9.32046,1.91494,4.92356,-2.04488,40.0502,10,0,0,0
0,1405351412,911648,29.2747,19.7229,-48.7037,60.1502,-8.6058,-0.554795,3.56349,9.33092,2.77128,5.23577,-1.11505,40.0575,11,0,0,0
0,1405351413,912649,29.187,19.5935,-48.7031,60.0648,-8.58792,-0.56753,3.57318,9.31891,1.48199,5.96082,-0.890768,40.0612,11,0,0,0
0,1405351414,913651,29.702,19.4555,-48.6511,60.23,-8.61087,-0.539164,3.57559,9.33931,1.55162,4.13774,-3.38745,40.0723,10,0,0,0
0,1405351415,914654,29.1709,20.2997,-48.2379,59.9159,-8.59362,-0.553185,3.60374,9.33505,1.96073,5.35187,0.00313792,39.9739,10,0,0,0
0,1405351416,915655,29.1579,19.7828,-48.62,60.0453,-8.60896,-0.543065,3.58784,9.34247,2.5344,4.92234,-2.22036,40.1817,10,0,0,0
0,1405351417,916657,29.6198,19.8633,-48.6152,60.2936,-8.5983,-0.551368,3.56413,9.32404,1.24017,2.96986,-2.2436,40.1403,11,0,0,0
0,1405351418,917660,29.2617,19.9361,-49.1335,60.5623,-8.5907,-0.517416,3.59854,9.3283,1.20256,5.46711,-1.09411,40.1277,10,0,0,0
0,1405351419,918665,29.2415,19.4204,-49.1488,60.3972,-8.61183,-0.528399,3.59056,9.34532,2.16217,4.91585,-1.45853,40.1893,9,0,0,0
0,1405351420,919666,29.1862,19.93,-48.8143,60.265,-8.59444,-0.538283,3.54,9.31052,1.71495,5.38234,-0.838223,40.0851,12,0,0,0
0,1405351421,920669,29.0539,19.5742,-48.706,59.9963,-8.57964,-0.533759,3.54524,9.29859,1.68926,5.40329,-1.44573,40.0717,11,0,0,0
0,1405351422,921674,29.2841,20.4517,-48.6105,60.3226,-8.62067,-0.534841,3.57958,9.34962,2.24847,5.10366,-0.21957,40.2128,10,0,0,0
0,1405351423,922678,29.3635,19.8914,-48.814,60.3382,-8.60622,-0.539068,3.57139,9.33341,0.647984,5.01802,-2.23308,40.1929,11,0,0,0
0,1405351424,923682,29.1185,20.0994,-48.6618,60.1651,-8.58848,-0.527264,3.59696,9.32621,2.71346,5.07193,-2.53893,40.0442,10,0,0,0
0,1405351425,924684,29.0228,19.3726,-48.7753,59.9721,-8.56914,-0.528788,3.57298,9.29924,1.63175,5.58004,-0.469898,40.0459,10,0,0,0
0,1405351426,925688,29.3072,19.9634,-48.7617,60.2922,-8.5842,-0.548899,3.5411,9.3021,1.92163,4.78523,-1.25921,39.9734,11,0,0,0
0,1405351427,926692,29.6044,19.8367,-48.6074,60.271,-8.62975,-0.524059,3.53276,9.33957,1.54474,5.86088,-0.484927,39.9391,11,0,0,0
0,1405351428,927698,29.6085,19.9158,-48.8006,60.455,-8.58093,-0.559647,3.59423,9.32009,2.21235,5.53507,-1.33051,39.9523,11,0,0,0
0,1405351429,928699,29.1509,19.8473,-48.7101,60.1362,-8.59087,-0.544869,3.5657,9.31741,2.00085,5.32733,-0.661564,39.9145,10,0,0,0
0,1405351430,929703,29.1242,19.5476,-48.3578,59.7394,-8.59457,-0.512713,3.55557,9.31513,1.43881,4.80319,-1.21833,39.9642,11,0,0,0
0,1405351431,930707,29.359,19.8459,-48.7831,60.2959,-8.59525,-0.555474,3.56772,9.32284,2.42042,5.38038,-1.24561,40.0413,11,0,0,0
0,1405351432,931710,29.3316,19.7742,-49.0659,60.4882,-8.58946,-0.544195,3.57074,9.318,3.4108,5.14199,-0.0582633,40.0458,10,0,0,0
0,1405351433,932713,29.4003,20.0592,-48.8868,60.4704,-8.62006,-0.536828,3.55658,9.34039,2.26799,4.78729,-0.865666,39.8173,11,0,0,0
0,1405351434,933717,29.6849,19.1963,-48.755,60.2225,-8.59895,-0.562263,3.58873,9.33473,1.37225,4.71579,-0.466646,39.8403,11,0,0,0
