0,1405367576,utime,,bx(uT),by(uT),bz(uT),,B(uT),ax,,,,ay,,az,,,,,A,,,,,gx,,,gy,,,,gz,,,T(C),rate,,track,tilt,roll
0,1405367576,mins,,-1000,-1000,-1000,,,,,0,,,,-2000,-2000,-2000,,0,,,-2000,,-2000,-2000,-2000,,0,,0,,-180,-180
0,1405367576,maxs,,,1000,,1000,,1000,,,,1000,,,2000,,2000,,2000,2000,,2000,,,2000,,2000,,2000,,37000,360,180,180
0,1405367576,attr,,,,,F,,,,,F,,,,,F,,,,,,F,,,,,,F,,,,,F,,,,F,,,,,F,,,,,F,,,,,,F,,,,,F,,,,,F,,,,,I,F,F,F
0,1405367577,2206,-1.52905,2.93578,-3.94495,5.14971,-1.45831,-0.105579,0.613676,1.58569,0.0811594,0.811594,-0.452174,4.28222,0,0,0,0
0,1405367578,3211,-9.56173,17.9074,-23.4107,30.9864,-8.68005,-0.482043,3.59851,9.40877,0.13049,4.61335,0.842214,43.0484,10,0,0,0
0,1405367579,4215,-9.77124,18.571,-23.1539,31.2484,-8.65289,-0.498025,3.62688,9.39547,0.670352,4.26519,0.580247,43.1701,11,0,0,0
0,1405367580,5224,-9.95773,18.7198,-22.6462,31.0232,-8.56023,-0.518126,3.76217,9.36482,-0.306676,3.88924,1.18643,43.3498,7,0,0,0
0,1405367585,10190,-9.98861,19.5662,-23.1316,31.9011,-8.47842,-0.520989,3.98272,9.38174,-0.251615,4.79296,-0.150035,43.1559,2,0,0,0
0,1405367586,11191,-11.9973,16.7666,-23.8171,31.501,-8.69297,-0.668441,3.5007,9.39518,4.44896,5.56514,-3.24449,43.4731,7,0,0,0
0,1405367587,12195,-8.89532,17.8966,-23.522,30.8658,-8.93584,-0.678192,3.64757,9.67543,5.94083,4.8995,-3.16938,43.4519,6,0,0,0
0,1405367588,13198,-8.46728,18.3447,-23.0746,30.6702,-8.44484,-0.828999,3.41752,9.14779,2.20619,1.92767,-1.46771,43.5484,6,0,0,0
0,1405367589,14203,-8.11364,18.3251,-23.017,30.5192,-8.41779,-0.759398,3.32006,9.08068,2.95309,2.98783,-2.16832,43.6074,7,0,0,0
0,1405367590,15206,-7.76541,18.3209,-23.3464,30.6759,-8.65733,-0.645771,3.65824,9.42067,1.32729,5.04124,-2.54222,43.5629,6,0,0,0
0,1405367591,16207,-7.79826,18.463,-23.7543,31.0799,-8.67051,-0.634433,3.6129,9.41452,2.20292,2.84892,-1.79497,43.5624,7,0,0,0
0,1405367592,17214,-8.24322,18.3096,-22.9461,30.4912,-8.90821,-0.720111,3.94976,9.77115,-2.33989,5.07524,1.65578,43.677,6,0,0,0
0,1405367593,18215,-8.82238,18.3968,-21.5355,29.6656,-8.59255,-0.560628,3.7161,9.37846,-5.26981,4.79228,2.61703,43.7363,7,0,0,0
0,1405367594,19223,-9.48306,18.8621,-19.6031,28.8095,-8.65648,-0.53399,3.75456,9.45075,-6.87894,4.24319,3.16461,43.7137,7,0,0,0
0,1405367595,20224,-10.3745,20.6899,-17.7549,29.1709,-8.64341,-0.352226,3.67772,9.3999,-10.4026,4.64699,6.31567,43.6956,6,0,0,0
0,1405367596,21230,-10.9861,22.214,-14.9373,28.9358,-8.68247,-0.370935,3.7629,9.47007,-13.7629,3.84101,9.1591,43.7142,7,0,0,0
0,1405367597,22233,-10.6466,24.5137,-11.2295,28.9892,-8.77129,-0.170712,3.74347,9.53825,-18.5047,3.68339,9.97349,43.7992,7,0,0,0
0,1405367598,23238,-10.103,26.5726,-6.45603,29.1523,-8.84517,-0.390039,3.60644,9.5601,-17.0785,1.43956,8.13024,43.7691,7,0,0,0
0,1405367599,24247,-7.8307,28.9604,-3.13402,30.1637,-8.55062,-0.00954554,3.65135,9.29761,-19.2845,2.16111,9.33364,43.9082,6,0,0,0
0,1405367600,25248,-5.19867,30.5854,0.265818,31.0252,-8.32946,-0.0790788,3.5239,9.04456,-20.0848,5.16426,7.79399,43.9058,7,0,0,0
0,1405367601,26515,-4.39338,30.8701,1.03191,31.1982,-8.08278,-0.145083,3.47768,8.80038,-20.088,5.34703,8.00224,43.9308,4,0,0,0
0,1405367602,27520,4.09049,33.9377,6.55683,34.8065,-8.39592,-0.0338505,3.23864,8.99896,-20.1151,5.85624,10.4448,43.9451,5,0,0,0
0,1405367603,28527,9.30354,34.3328,7.58391,36.3705,-7.80559,0.20769,3.30226,8.47793,-20.8616,3.30374,9.72143,43.9703,5,0,0,0
0,1405367604,29529,15.0387,34.4988,7.7754,38.429,-9.42931,-0.104918,3.56534,10.0814,-22.8988,4.82443,12.6877,43.9322,7,0,0,0
0,1405367605,30532,21.519,34.0112,7.05339,40.8605,-9.50124,0.314555,3.72257,10.2093,-23.6663,3.08409,12.3898,43.9623,6,0,0,0
0,1405367606,31543,27.3679,33.028,4.16117,43.0948,-8.74673,-0.0382235,3.68841,9.49268,-22.6804,3.56435,11.1255,43.8293,6,0,0,0
0,1405367607,32545,31.7626,31.3492,0.661225,44.6327,-8.56276,0.180207,3.78219,9.3626,-24.0707,-0.20229,12.5559,43.9288,7,0,0,0
0,1405367608,33550,35.2495,29.1923,-3.85112,45.9298,-8.51237,0.0262437,3.62501,9.25212,-21.5848,3.08449,10.4334,44.0113,6,0,0,0
0,1405367609,34557,37.5207,27.1765,-8.56644,47.1143,-8.81125,-0.104017,3.81248,9.60125,-20.1993,4.2499,10.3461,44.1136,6,0,0,0
0,1405367612,37712,37.9901,24.1096,-13.6502,47.0197,-8.72262,-0.0585274,4.13817,9.65463,-21.4611,6.86451,10.7688,44.1797,6,0,0,0
0,1405367614,39487,37.9286,21.5601,-18.1364,47.2477,-8.18496,-0.271205,4.06317,9.14202,-20.2948,3.75068,11.4349,44.7129,6,0,0,0
0,1405367615,40489,36.4349,19.487,-23.1706,47.3722,-8.59853,-0.246537,3.84407,9.42191,-19.8965,3.95663,8.04916,44.8333,7,0,0,0
0,1405367616,41496,34.6511,16.6922,-26.5296,46.7241,-8.4645,-0.118613,3.88455,9.31405,-15.2989,2.16308,10.2652,44.7383,7,0,0,0
0,1405367617,42504,30.8596,15.3031,-29.5936,45.4123,-8.38153,-0.274085,4.12009,9.34346,-14.4036,5.14147,8.62596,44.8263,6,0,0,0
0,1405367618,43756,29.1594,15.1268,-30.9668,45.1446,-8.61114,-0.402067,4.1249,9.55658,-12.1266,5.36649,5.81989,45.0088,1,0,0,0
0,1405367619,44758,27.7647,14.5441,-32.0194,44.8068,-8.57921,-0.470552,3.83598,9.40952,2.40333,5.93786,-0.467248,45.4793,5,0,0,0
0,1405367620,45762,27.6674,14.4563,-32.0222,44.7201,-8.60356,-0.545432,3.85298,9.44268,3.09302,3.53023,0.12084,45.6176,6,0,0,0
0,1405367621,46764,27.8172,14.6895,-32.3225,45.1035,-8.59595,-0.358366,3.73899,9.38077,2.26833,3.95477,0.538082,45.8216,7,0,0,0
0,1405367622,47772,27.7482,13.7582,-32.0751,44.5877,-8.69005,-0.419858,3.89458,9.5321,1.61893,4.55672,0.285958,45.9722,7,0,0,0
0,1405367623,48774,26.9322,13.561,-32.5043,44.337,-8.686,-0.438769,3.70012,9.45145,1.74918,3.76093,-1.99508,46.2677,7,0,0,0
0,1405367624,49778,27.2324,13.7413,-31.7948,44.0606,-8.60461,-0.456046,3.83944,9.43338,3.01735,4.28067,-1.88265,46.4337,7,0,0,0
0,1405367625,50787,27.1978,14.7239,-32.0681,44.5519,-8.65919,-0.502018,3.76047,9.45382,-0.428335,5.25732,0.102802,46.5058,6,0,0,0
0,1405367626,51792,26.8841,14.2432,-32.443,44.4766,-8.66524,-0.563457,3.73423,9.45242,3.1353,5.01228,0.250624,46.4539,7,0,0,0
0,1405367627,52796,27.0722,14.1694,-32.2926,44.4577,-8.63795,-0.575928,3.66274,9.40008,0.711156,3.87782,-1.28069,46.5783,7,0,0,0
0,1405367628,53802,26.6493,14.7614,-32.2737,44.381,-8.39712,-0.503631,3.93224,9.28589,5.98569,3.99202,-2.12497,46.5783,7,0,0,0
0,1405367629,54809,27.2384,14.3487,-31.5998,44.1176,-8.32492,-0.491467,4.37996,9.41965,3.55107,6.0025,-0.949567,46.7483,7,0,0,0
0,1405367630,55814,27.3292,14.8926,-31.7451,44.4571,-8.55994,-0.484626,4.00837,9.46438,1.51653,4.80477,-0.507432,46.8463,7,0,0,0
0,1405367631,56815,26.6847,14.3879,-31.6804,43.849,-8.51739,-0.48478,4.09958,9.46507,1.77481,5.48844,-0.808744,47.0574,6,0,0,0
0,1405367632,57817,27.0449,14.1602,-31.193,43.6456,-8.5657,-0.497016,3.99762,9.46569,2.17496,6.72354,-1.01717,47.3141,6,0,0,0
0,1405367633,58824,27.018,14.7444,-32.0764,44.4552,-8.79153,-0.483471,3.71003,9.55452,4.46023,5.3941,-1.38783,47.4281,6,0,0,0
0,1405367634,59828,27.4849,14.4395,-31.747,44.4049,-8.55565,-0.443436,3.91549,9.4195,4.47472,4.6306,-3.06536,47.5496,6,0,0,0
0,1405367635,60834,28.7169,13.9895,-30.8499,44.4081,-8.67375,-0.335824,3.97248,9.54607,11.9365,4.85117,-5.00206,47.8732,7,0,0,0
0,1405367636,61846,30.1691,15.6687,-29.9452,45.3034,-8.64691,-0.41038,4.22929,9.63454,11.8032,5.73474,-6.40583,48.06,6,0,0,0
0,1405367637,62850,31.7434,16.857,-28.0981,45.6213,-8.43553,-0.494354,3.92644,9.31769,11.7018,5.80074,-6.71803,48.2851,7,0,0,0
0,1405367639,64442,32.8356,16.6454,-26.9417,45.6191,-8.65403,-0.534339,3.82375,9.47622,11.1285,6.68207,-8.55966,48.2102,3,0,0,0
0,1405367640,65450,33.1241,18.1696,-26.275,46.0186,-8.5093,-0.693638,4.02144,9.43723,-5.58174,5.29825,1.22963,48.2788,6,0,0,0
0,1405367641,66453,32.1077,16.9032,-27.3233,45.4223,-8.46987,-0.646362,4.20201,9.47699,-5.39002,4.31868,2.3708,48.2849,7,0,0,0
0,1405367642,67459,30.7389,16.5443,-28.6747,45.1756,-8.25578,-0.730198,4.55754,9.45845,-2.25684,4.91295,0.803417,48.444,6,0,0,0
0,1405367644,69558,30.2723,16.565,-28.7415,44.9097,-8.37338,-0.5763,4.49453,9.52084,2.43998,4.65149,0.799168,48.7446,3,0,0,0
0,1405367645,70563,29.3618,15.3874,-29.6538,44.4773,-8.43573,-0.384953,4.32112,9.48587,-7.25875,4.76793,3.03223,49.1125,5,0,0,0
0,1405367646,71565,27.5058,15.1485,-30.8754,44.0379,-8.36406,-0.54491,3.93623,9.26004,-9.2441,5.97073,4.40297,49.2234,7,0,0,0
0,1405367647,72570,25.9671,14.6595,-31.4786,43.36,-8.80716,-0.667488,3.99986,9.6959,-2.58106,5.4016,1.34705,49.1071,6,0,0,0
0,1405367648,73576,25.5631,14.5254,-31.7235,43.2532,-8.70835,-0.683384,3.76591,9.51233,2.70883,5.67895,-2.26254,49.0337,6,0,0,0
0,1405367649,74577,25.7777,14.1496,-31.9626,43.4317,-8.57535,-0.704553,3.71443,9.37176,4.60779,4.47515,-3.45407,48.9707,6,0,0,0
0,1405367650,75582,26.48,14.0253,-31.838,43.7214,-8.4884,-0.708555,3.81236,9.33215,3.21124,3.97204,-0.994686,49.0545,5,0,0,0
0,1405367651,76600,26.8734,13.9496,-31.9419,44.012,-8.47917,-0.484765,4.07943,9.42194,1.00798,5.82188,-2.4829,49.2772,7,0,0,0
0,1405367652,77609,27.2177,13.8935,-31.5535,43.9256,-8.54117,-0.530293,3.96871,9.4331,3.0461,5.13817,-0.670244,49.4962,7,0,0,0
0,1405367653,78616,26.9732,13.9177,-31.6589,43.8582,-8.6653,-0.361154,3.91617,9.516,3.45622,6.30229,-1.1298,49.7709,6,0,0,0
0,1405367654,79626,27.2581,14.2308,-31.5246,44.0378,-8.54204,-0.334752,3.81045,9.35938,4.27944,5.94664,-2.77864,49.8983,7,0,0,0
0,1405367655,80629,26.9563,14.2605,-31.3139,43.71,-8.52022,-0.514933,4.04053,9.44379,1.86709,5.84898,-1.58431,49.915,6,0,0,0
0,1405367656,81633,26.6812,14.0889,-31.4368,43.5736,-8.51844,-0.382979,4.16959,9.49188,1.38757,5.23921,-2.01489,49.9073,8,0,0,0
0,1405367657,82635,25.7123,13.4211,-31.7012,42.9676,-8.50402,-0.460418,4.16116,9.47869,2.48751,6.59856,-0.432366,50.1328,7,0,0,0
0,1405367658,83846,25.0861,14.3674,-30.1829,41.7941,-8.48671,-0.464703,3.60062,9.23063,4.19032,5.95447,-1.65996,50.0339,2,0,0,0
0,1405367659,84853,25.6169,16.3765,-34.3653,45.8845,-8.62477,-0.379351,3.79672,9.4311,2.69381,5.10152,-0.893001,49.9528,4,0,0,0
0,1405367660,85856,26.2688,13.8424,-33.6669,44.8901,-8.40073,-0.4153,4.05406,9.33703,1.07561,5.09797,-1.20972,50.1327,5,0,0,0
0,1405367661,86868,26.1772,13.3893,-32.7544,44.0155,-8.64413,-0.52729,3.79365,9.45467,1.98236,6.17844,-1.59728,50.1921,6,0,0,0
0,1405367662,87877,26.2987,13.133,-32.9261,44.1387,-8.61318,-0.291061,3.84505,9.43695,3.48874,5.41299,-2.86623,50.4356,6,0,0,0
0,1405367663,88885,26.1629,13.3669,-32.821,44.0499,-8.4837,-0.423788,4.22853,9.48858,1.96855,6.08363,-0.868577,50.6812,7,0,0,0
0,1405367664,89890,26.42,13.1342,-32.5912,43.9627,-8.48257,-0.434515,4.15524,9.45563,2.7053,6.55627,-1.6735,50.8492,7,0,0,0
0,1405367665,90892,26.3189,13.4995,-32.5006,43.9456,-8.50635,-0.414453,4.14068,9.46968,2.62039,6.269,-2.39215,51.0429,7,0,0,0
0,1405367666,91895,26.3667,13.2855,-32.7584,44.1001,-8.48371,-0.397448,4.12135,9.44017,2.48889,5.17059,-1.82715,51.221,6,0,0,0
0,1405367667,92896,26.4584,13.0395,-32.6512,44.002,-8.51203,-0.426821,4.11405,9.46373,2.15357,6.51125,-1.7055,51.2095,7,0,0,0
0,1405367668,93899,26.1705,13.1011,-32.4731,43.7154,-8.48808,-0.430098,4.09456,9.43387,2.66197,5.81474,-2.22005,51.3642,7,0,0,0
0,1405367669,94903,26.2774,13.2009,-32.5328,43.8537,-8.48489,-0.412136,4.11107,9.43738,2.41575,6.46725,-2.24973,51.344,6,0,0,0
0,1405367670,95913,26.1441,13.2497,-32.2336,43.5668,-8.49396,-0.434474,4.11221,9.44703,2.14986,6.32143,-1.8342,51.4872,7,0,0,0
0,1405367671,96915,26.4428,13.2209,-32.5721,43.9881,-8.4883,-0.4273,4.10477,9.43838,1.49499,6.43142,-2.42667,51.7164,6,0,0,0
0,1405367672,97919,26.2548,13.117,-32.5686,43.8416,-8.491,-0.430126,4.12841,9.45123,1.45408,5.7311,-1.59821,51.9466,7,0,0,0
0,1405367673,98930,26.1978,13.4699,-32.7725,44.0658,-8.49235,-0.420658,4.09707,9.43837,3.12516,6.41499,-1.79994,52.0695,7,0,0,0
0,1405367674,99935,26.4031,13.319,-32.6523,44.0533,-8.49251,-0.423758,4.12693,9.45166,1.83473,6.0535,-1.85444,52.0447,6,0,0,0
0,1405367675,100938,26.3681,13.1509,-32.9903,44.2333,-8.49041,-0.408815,4.12431,9.44797,3.16565,6.40525,-1.20589,52.1183,7,0,0,0
0,1405367676,101940,26.3576,13.4524,-32.4447,43.913,-8.49062,-0.405404,4.11052,9.442,3.24487,6.767,-2.23309,52.1794,8,0,0,0
0,1405367677,102951,26.3734,13.2436,-32.9046,44.2002,-8.5067,-0.39517,4.09485,9.44923,2.01532,5.38755,-1.52688,52.243,7,0,0,0
0,1405367678,103956,26.7294,13.5144,-32.9043,44.4948,-8.51627,-0.413505,4.11245,9.46626,2.48071,6.50917,-0.406263,52.2897,7,0,0,0
0,1405367679,104958,26.1484,13.2542,-32.5281,43.7891,-8.50245,-0.466503,4.09595,9.44913,3.22766,5.36779,-1.35573,52.4567,6,0,0,0
0,1405367680,105966,26.605,13.1177,-32.6833,44.1373,-8.48453,-0.450612,4.11324,9.43976,1.48408,7.02914,0.500391,52.5834,6,0,0,0
0,1405367681,106969,26.2377,13.1907,-32.0403,43.4626,-8.50592,-0.408031,4.10382,9.45296,2.42178,7.2789,-1.32461,52.6316,6,0,0,0
0,1405367682,107977,26.3028,13.5022,-32.7303,44.1069,-8.50867,-0.436219,4.10135,9.45563,2.00002,5.93218,-2.95013,52.6863,6,0,0,0
0,1405367683,108984,26.2106,13.1514,-32.7667,43.9729,-8.52237,-0.471855,4.02249,9.43578,2.50578,6.23968,-1.86691,52.7246,6,0,0,0
0,1405367684,109992,26.1965,12.9086,-32.6256,43.7872,-8.49842,-0.433812,4.12624,9.45713,0.354323,6.80603,-1.46808,52.5974,7,0,0,0
0,1405367686,111002,26.3447,13.0711,-32.5416,43.8617,-8.50692,-0.451042,4.09947,9.45393,2.89983,5.36399,-1.72331,52.7107,6,0,0,0
0,1405367687,112011,26.1121,12.9442,-32.7199,43.8177,-8.52056,-0.431713,4.02701,9.43415,1.61638,5.60936,-1.99768,52.7084,7,0,0,0
0,1405367688,113020,26.185,13.1682,-32.552,43.8028,-8.48938,-0.470048,4.08482,9.43273,3.89582,5.25428,-0.844956,52.8442,7,0,0,0
0,1405367689,114024,26.1227,13.2773,-32.1841,43.5258,-8.45739,-0.399359,4.09682,9.40589,1.99894,5.47572,-1.45641,53.0969,6,0,0,0
0,1405367690,115031,26.3782,13.5973,-32.5712,44.0634,-8.50217,-0.36902,4.04739,9.42361,2.70517,6.47803,-0.988524,53.1141,7,0,0,0
0,1405367691,116034,26.048,13.0772,-32.5804,43.7149,-8.47728,-0.44038,4.08528,9.4206,3.70764,6.47208,-1.08263,53.0843,7,0,0,0
0,1405367692,117040,26.0329,13.3125,-31.9103,43.2805,-8.55863,-0.531943,3.82588,9.38991,3.05805,6.27252,-1.00136,53.1666,7,0,0,0
0,1405367693,118042,26.4665,13.0068,-32.3771,43.7942,-8.54288,-0.534671,3.79451,9.36296,3.08416,4.91862,-1.19555,52.9733,7,0,0,0
0,1405367694,119048,26.4685,13.2363,-32.6981,44.1016,-8.52107,-0.460894,4.02676,9.43588,2.67194,6.62009,-0.469874,52.8496,7,0,0,0
0,1405367695,120056,26.3748,13.2185,-32.3765,43.8018,-8.4671,-0.43264,4.16717,9.44692,2.30388,7.45684,-0.310007,53.0859,8,0,0,0
0,1405367696,121064,26.3303,13.1278,-32.4484,43.8009,-8.4557,-0.394453,4.08388,9.39853,1.12733,6.22429,-0.0990498,53.0944,5,0,0,0
0,1405367697,122070,26.3838,13.364,-32.6013,44.0176,-8.51332,-0.402833,4.05463,9.43817,2.92354,6.23788,-2.21191,53.1822,7,0,0,0
0,1405367698,123074,26.421,13.3254,-32.3095,43.8125,-8.50407,-0.439088,4.10708,9.45411,2.30613,6.02867,-1.49171,53.3511,6,0,0,0
0,1405367699,124077,26.2626,12.9146,-32.6534,43.8492,-8.51022,-0.418043,4.12348,9.46582,0.984218,7.16133,-0.960676,53.5514,7,0,0,0
0,1405367700,125080,26.298,12.9772,-32.5075,43.7804,-8.47824,-0.385144,4.05965,9.40796,2.2017,7.011,-2.23776,53.5586,8,0,0,0
0,1405367701,126084,25.9107,12.9689,-32.4431,43.4984,-8.53583,-0.437836,4.07979,9.47084,0.985881,5.22141,-1.94443,53.5288,7,0,0,0
0,1405367702,127091,26.0128,12.4614,-33.3551,44.0966,-8.43851,-0.411202,4.15397,9.41451,2.35372,6.09483,-1.79444,53.5779,7,0,0,0
0,1405367703,128097,25.7881,12.4191,-33.1814,43.8208,-8.51072,-0.414479,4.0919,9.4524,1.24995,4.64986,-1.0294,53.6276,6,0,0,0
0,1405367704,129106,25.7429,12.1771,-33.2324,43.7649,-8.48963,-0.457152,4.12857,9.45135,2.4905,7.8305,-0.647391,53.6989,7,0,0,0
0,1405367705,130111,25.9786,12.338,-33.2005,43.9248,-8.48857,-0.432675,4.14448,9.4562,2.28135,6.00112,-0.983368,53.8742,6,0,0,0
0,1405367706,131121,25.1469,12.0816,-33.4303,43.5421,-8.49568,-0.401949,4.09931,9.44153,1.58245,6.21701,-0.214765,53.9121,6,0,0,0
0,1405367707,132127,25.7111,12.2938,-33.3118,43.8391,-8.47327,-0.37282,4.13888,9.43746,2.78746,5.75511,-2.93981,54.0547,6,0,0,0
0,1405367708,133129,25.9896,12.5766,-33.4527,44.1895,-8.49231,-0.437192,4.11159,9.4454,1.32755,7.38048,-1.56197,54.0686,4,0,0,0
0,1405367709,134132,25.4862,12.0349,-33.1155,43.4859,-8.49536,-0.407526,4.12436,9.45238,2.72882,6.37836,-2.01995,54.203,6,0,0,0
0,1405367710,135133,25.8131,12.2189,-32.9446,43.6,-8.43228,-0.428143,4.20307,9.43146,1.66747,7.27928,-2.08074,54.2964,7,0,0,0
0,1405367711,136142,25.8501,12.3338,-33.1132,43.7817,-8.4488,-0.422189,4.19882,9.44408,1.72105,6.64335,-0.999885,54.4024,7,0,0,0
0,1405367712,137143,25.556,12.1258,-33.2361,43.6437,-8.47625,-0.451827,4.13211,9.44062,2.69995,5.93012,-1.4061,54.5303,6,0,0,0
0,1405367713,138147,25.8615,12.4861,-33.305,43.9766,-8.4762,-0.413049,4.08677,9.41903,2.10901,6.21326,-1.38902,54.8731,6,0,0,0
0,1405367714,139152,25.5057,12.1377,-32.8645,43.3352,-8.47279,-0.433024,4.12824,9.43494,3.43731,6.11416,-1.49039,54.7416,7,0,0,0
0,1405367715,140164,25.7439,12.2421,-33.1361,43.7106,-8.48757,-0.412216,4.09025,9.43074,2.30074,6.1743,-1.72068,54.9195,6,0,0,0
0,1405367716,141168,25.7199,12.2861,-32.8219,43.4711,-8.48099,-0.391566,4.11753,9.43581,1.4173,7.60695,-1.44057,54.9792,6,0,0,0
0,1405367717,142171,25.6815,12.6798,-32.8126,43.5544,-8.49667,-0.427356,4.10884,9.44768,2.03298,5.87494,-1.95731,55.1443,7,0,0,0
0,1405367718,143177,25.3073,12.0246,-33.3083,43.5258,-8.53203,-0.411843,4.07235,9.46305,2.70746,5.63716,-2.55854,55.2654,6,0,0,0
0,1405367719,144186,25.5363,12.268,-32.9281,43.4381,-8.4857,-0.422051,4.11806,9.44159,3.38118,5.17067,-1.60771,55.3714,6,0,0,0
0,1405367720,145193,25.8714,12.5096,-33.1033,43.8367,-8.48981,-0.4394,4.12555,9.44934,1.08627,5.40989,-1.83401,55.3506,7,0,0,0
0,1405367721,146199,25.2647,12.3274,-33.9259,44.0594,-8.54156,-0.426813,4.03948,9.45822,0.694151,7.97708,-0.714707,55.4859,7,0,0,0
0,1405367722,147207,25.5642,12.8812,-33.7955,44.2899,-8.4642,-0.422703,4.09355,9.41162,3.06245,6.56744,-1.27106,55.5606,7,0,0,0
0,1405367723,148208,23.5294,11.7444,-36.6655,45.1212,-8.51238,-0.42307,4.12139,9.46707,1.80212,6.58886,-1.49463,55.6004,7,0,0,0
0,1405367724,149214,22.4546,12.2209,-35.4547,43.7103,-8.46731,-0.485995,4.1618,9.44734,1.87503,5.94614,-1.39403,55.7723,7,0,0,0
0,1405367725,150217,22.1267,12.0308,-35.4993,43.5262,-8.50066,-0.420148,4.10409,9.44888,0.746783,6.38286,-0.641647,55.7863,6,0,0,0
0,1405367726,151220,21.7835,11.4976,-35.5867,43.2797,-8.49593,-0.437083,4.12667,9.45522,1.087,7.61057,-1.58278,55.9774,7,0,0,0
0,1405367727,152221,22.6032,12.0014,-35.2676,43.5745,-8.48491,-0.433334,4.14904,9.45495,2.82606,7.416,-1.69714,55.9809,6,0,0,0
0,1405367728,153222,19.9682,9.50946,-36.2271,42.4448,-8.48876,-0.435885,4.11849,9.44516,1.30904,7.30743,-1.09376,56.1988,7,0,0,0
0,1405367729,154229,20.2385,9.5099,-35.7895,42.201,-8.51378,-0.435967,4.09244,9.45635,3.55397,5.70209,-2.1103,56.2243,7,0,0,0
0,1405367730,155233,20.0538,9.48799,-36.1733,42.4345,-8.48871,-0.405713,4.07774,9.42607,-0.0127318,6.60137,-1.86144,56.3812,7,0,0,0
0,1405367731,156236,19.9673,9.60246,-36.0586,42.3217,-8.49866,-0.422583,4.10514,9.44765,1.22944,6.91937,-2.41612,56.5999,6,0,0,0
0,1405367732,157244,19.709,9.51471,-36.13,42.2415,-8.48243,-0.437239,4.14838,9.45261,2.33452,6.1957,-1.05413,56.6444,6,0,0,0
0,1405367733,158246,19.9886,9.71641,-36.2271,42.5012,-8.4923,-0.420954,4.06958,9.42644,2.35971,6.67707,-0.536665,56.807,6,0,0,0
0,1405367734,159249,20.0251,9.32598,-35.9578,42.2012,-8.48791,-0.508414,4.12898,9.45259,2.39703,6.55549,-1.49013,56.8516,7,0,0,0
0,1405367735,160251,20.3784,9.74685,-35.819,42.3472,-8.5065,-0.445598,4.09889,9.45304,1.9062,7.29008,-0.512142,56.8597,6,0,0,0
0,1405367736,161252,20.4535,9.87903,-36.0763,42.6315,-8.49108,-0.377713,4.06292,9.42064,2.28044,7.18456,-2.85328,56.8701,6,0,0,0
0,1405367737,162254,20.2461,9.58009,-36.1199,42.5009,-8.51047,-0.435689,4.13798,9.47316,1.35046,7.16405,-2.20844,57.0051,6,0,0,0
0,1405367738,163258,20.1118,9.55052,-36.0613,42.3806,-8.48916,-0.424829,4.09949,9.43674,1.13766,6.50085,-1.96657,56.9816,6,0,0,0
0,1405367739,164271,19.6238,9.70392,-36.1814,42.289,-8.49064,-0.441221,4.05449,9.41937,2.98066,6.26677,-1.38115,57.0075,6,0,0,0
0,1405367740,165272,19.8942,9.74549,-36.2992,42.5251,-8.46266,-0.414893,4.12726,9.4246,3.11963,6.27866,-1.81049,57.0293,6,0,0,0
0,1405367741,166278,20.1729,9.88364,-36.484,42.8452,-8.48954,-0.396535,4.08209,9.4283,1.18507,6.93646,-0.416946,57.0884,7,0,0,0
0,1405367742,167282,19.8348,9.86676,-36.3602,42.5774,-8.46233,-0.422217,4.15604,9.43727,2.97839,7.14315,-2.12377,57.0971,6,0,0,0
0,1405367743,168287,20.1519,9.74307,-36.5951,42.8979,-8.49376,-0.414404,4.08622,9.43467,2.46396,7.16114,-0.901764,57.2719,7,0,0,0
0,1405367744,169289,19.8048,9.79479,-36.47,42.6407,-8.51559,-0.435417,4.09777,9.46027,0.916436,5.94641,-2.35692,57.3476,6,0,0,0
0,1405367745,170297,19.8557,9.55498,-36.4135,42.5616,-8.48884,-0.429046,4.10208,9.43777,2.64517,6.0141,-1.28176,57.5435,7,0,0,0
0,1405367746,171302,19.7911,9.81228,-36.247,42.4478,-8.47663,-0.418565,4.12843,9.43782,2.69535,6.58742,-0.983238,57.5126,8,0,0,0
0,1405367747,172304,19.4165,9.57949,-36.1727,42.1572,-8.48094,-0.451919,4.07535,9.42014,3.5504,7.1238,-1.71973,57.5398,6,0,0,0
0,1405367748,173308,19.9264,9.56734,-36.3364,42.5315,-8.48688,-0.428259,4.08512,9.42861,1.31024,7.93306,-1.33261,57.7223,6,0,0,0
0,1405367749,174309,19.8753,10.0416,-36.2669,42.5576,-8.445,-0.420807,4.19304,9.43805,2.42292,4.77742,-0.919204,57.7684,7,0,0,0
0,1405367750,175320,20.0186,9.5649,-36.4141,42.6406,-8.50126,-0.41384,4.08965,9.44288,1.78225,6.28348,-2.74896,58.0119,7,0,0,0
0,1405367751,176327,20.0607,10.1938,-36.574,42.9418,-8.49588,-0.411409,4.14805,9.46338,2.16606,6.7547,-2.5567,58.0046,7,0,0,0
0,1405367752,177331,19.6026,9.40051,-36.3672,42.3699,-8.49206,-0.423134,4.12142,9.44882,2.32756,7.20692,-1.9459,58.0775,5,0,0,0
0,1405367753,178340,19.8246,9.71212,-36.4865,42.6451,-8.49879,-0.430186,4.09285,9.44277,1.51919,6.89599,-2.86014,58.124,6,0,0,0
0,1405367754,179342,19.6105,9.76507,-36.2811,42.3821,-8.51065,-0.422794,4.10146,9.45684,2.74307,7.44486,-2.13554,58.252,4,0,0,0
0,1405367755,180350,19.312,9.44665,-36.1953,42.0986,-8.50085,-0.435897,4.0909,9.44404,2.11313,6.24259,-1.19313,58.2479,7,0,0,0
0,1405367756,181354,19.3843,8.75294,-37.1356,42.7951,-8.49281,-0.425417,4.12303,9.4503,2.88096,7.08336,-0.80613,58.3261,7,0,0,0
0,1405367757,182356,19.9266,9.68081,-36.6785,42.8498,-8.48771,-0.425989,4.11218,9.44101,1.21336,6.3187,-1.29022,58.4502,7,0,0,0
0,1405367758,183364,19.8104,9.75514,-36.0099,42.2413,-8.49307,-0.406339,4.07575,9.42916,1.13282,6.74739,-2.23089,58.4806,7,0,0,0
0,1405367759,184365,19.7092,9.7317,-36.0768,42.2456,-8.47552,-0.419777,4.13279,9.43878,2.30124,7.89881,-2.10232,58.5413,6,0,0,0
0,1405367760,185368,19.361,9.61615,-36.4274,42.3588,-8.48441,-0.43887,4.12916,9.44604,2.0574,8.14334,-2.37407,58.5945,7,0,0,0
0,1405367761,186380,19.4837,9.51822,-36.3816,42.3537,-8.47286,-0.425792,4.16459,9.45064,2.42347,7.21377,-2.53026,58.7153,7,0,0,0
0,1405367762,187384,19.4754,9.63712,-36.1807,42.2043,-8.54747,-0.417614,4.11881,9.49727,1.9106,7.17632,-1.83325,58.7528,7,0,0,0
0,1405367763,188392,19.4883,9.67118,-36.1183,42.1647,-8.4914,-0.385037,4.11654,9.44447,2.2905,7.55704,-1.23599,58.7895,7,0,0,0
0,1405367764,189401,19.5843,9.5845,-36.3348,42.3748,-8.48365,-0.408584,4.13113,9.44486,1.87454,6.54367,-1.70556,58.8456,5,0,0,0
0,1405367765,190411,19.3371,9.42145,-36.1743,42.0864,-8.469,-0.41538,4.13899,9.43545,3.53475,7.27422,-2.38989,58.9216,7,0,0,0
0,1405367766,191416,19.3689,9.97842,-36.2563,42.2994,-8.50129,-0.422772,4.16908,9.47797,1.12478,7.79912,-1.27021,59.0765,6,0,0,0
0,1405367767,192424,19.1881,9.2599,-36.3756,42.1558,-8.48187,-0.392576,4.17906,9.46365,0.889686,7.00485,-0.911438,59.1967,7,0,0,0
0,1405367768,193432,20.0023,9.83711,-36.2649,42.5677,-8.4818,-0.412144,4.14208,9.44816,3.94304,8.14019,-1.61403,59.1589,7,0,0,0
0,1405367769,194440,19.4007,9.39158,-36.1506,42.0886,-8.48442,-0.433788,4.13696,9.44923,-0.0410847,6.30483,-1.24249,59.2946,6,0,0,0
0,1405367770,195448,19.8041,9.99904,-35.9145,42.2142,-8.46429,-0.40032,4.14564,9.43349,0.415992,8.15397,-1.47729,59.3924,7,0,0,0
0,1405367771,196455,19.7688,9.82061,-35.8758,42.1227,-8.48403,-0.402748,4.11569,9.43821,2.50098,8.03868,-2.705,59.4386,6,0,0,0
0,1405367772,197459,19.3093,9.61564,-36.0648,42.0236,-8.48203,-0.423557,4.11223,9.43582,2.2615,6.36934,-2.75105,59.5748,6,0,0,0
0,1405367773,198464,20.1851,9.83493,-35.9634,42.3973,-8.48568,-0.423085,4.12273,9.44366,2.034,7.08321,-0.994911,59.6538,6,0,0,0
0,1405367774,199477,19.6911,10.1116,-36.2732,42.4939,-8.48923,-0.409486,4.13593,9.45202,1.26029,7.11991,-1.49491,59.7136,6,0,0,0
0,1405367775,200483,19.4048,9.35608,-35.9421,41.9037,-8.48304,-0.408736,4.11861,9.43886,3.67891,7.86708,-1.77898,59.9243,7,0,0,0
0,1405367776,201491,19.6624,9.25107,-36.0162,42.0638,-8.47152,-0.417429,4.13978,9.43815,1.77832,8.30157,-2.18304,59.9998,7,0,0,0
0,1405367777,202492,19.7911,9.85303,-36.2833,42.4882,-8.47517,-0.419254,4.15287,9.44725,3.32141,7.51146,-3.13099,59.978,7,0,0,0
0,1405367778,203494,19.7325,9.40797,-36.1607,42.2549,-8.50445,-0.427489,4.16402,9.47879,1.33748,7.19652,-1.24812,60.0033,7,0,0,0
0,1405367779,204503,20.1275,9.67996,-35.8408,42.2301,-8.51926,-0.306652,4.12704,9.47124,2.57833,8.83031,-1.34719,60.0302,7,0,0,0
0,1405367780,205513,20.2266,10.345,-36.0691,42.6276,-8.49186,-0.435131,4.12206,9.44947,2.9131,6.66028,-1.89738,60.0105,6,0,0,0
0,1405367781,206516,19.9112,9.56064,-36.6287,42.7729,-8.48364,-0.433659,4.14664,9.45277,2.28207,7.38384,-1.13846,60.1459,5,0,0,0
0,1405367782,207523,20.4875,8.66841,-41.4533,47.0453,-8.51619,-0.428122,4.1122,9.46673,2.55013,7.48695,-1.75496,60.1591,6,0,0,0
0,1405367783,208524,20.1397,8.16465,-41.1476,46.5338,-8.50055,-0.438846,4.09853,9.44722,1.38241,7.67021,-2.00058,60.1959,6,0,0,0
0,1405367784,209538,20.1422,8.1817,-40.6915,46.1351,-8.50324,-0.447873,4.09439,9.44826,1.28368,8.00518,-1.72245,60.2254,6,0,0,0
0,1405367785,210540,20.2038,8.11808,-41.3248,46.7101,-8.51601,-0.409118,4.05255,9.43997,2.83976,7.37489,-2.3252,60.3293,7,0,0,0
0,1405367786,211541,20.5122,8.36846,-41.1539,46.7379,-8.49109,-0.412113,4.08515,9.4317,1.12835,7.29784,-2.49627,60.1874,6,0,0,0
0,1405367787,212550,20.0945,8.05942,-40.7666,46.159,-8.50008,-0.426589,4.10284,9.4481,1.68656,7.73599,-1.81886,60.3498,7,0,0,0
0,1405367788,213557,20.1756,8.51486,-40.9523,46.4397,-8.50888,-0.414573,4.11802,9.46208,0.806995,7.18948,-1.72124,60.4275,6,0,0,0
0,1405367789,214563,20.0945,7.51647,-42.0792,47.2329,-8.49882,-0.42806,4.09877,9.44527,1.43534,8.23945,-2.6665,60.5905,6,0,0,0
0,1405367790,215564,19.7309,6.83937,-42.6982,47.5313,-8.49838,-0.397876,4.13132,9.45773,1.04037,8.41834,-2.49012,60.6677,6,0,0,0
0,1405367791,216573,20.2218,8.26856,-40.9422,46.4064,-8.47664,-0.433063,4.17294,9.45803,0.393984,8.66362,-1.28271,60.7709,7,0,0,0
0,1405367792,217578,20.2199,8.52382,-41.1269,46.6146,-8.48991,-0.428928,4.12098,9.44696,2.35275,8.41341,-1.81652,60.9123,7,0,0,0
0,1405367793,218580,20.1699,8.43545,-40.5426,46.0617,-8.48361,-0.428057,4.10987,9.43641,1.40129,6.32417,-1.08782,60.9708,7,0,0,0
0,1405367794,219586,20.1045,7.2805,-42.2485,47.3512,-8.47152,-0.408902,4.13355,9.43505,1.8407,8.29018,-2.57137,61.1073,6,0,0,0
0,1405367795,220587,19.8889,7.00943,-42.5059,47.4495,-8.48454,-0.427383,4.10962,9.43711,2.50161,7.42864,-2.89714,60.9935,6,0,0,0
0,1405367796,221592,19.7723,7.36147,-42.3425,47.3077,-8.50109,-0.432496,4.10191,9.44888,1.96511,7.52055,-0.794018,61.0455,7,0,0,0
0,1405367797,222599,20.0515,8.49059,-41.1606,46.5655,-8.48514,-0.404556,4.13289,9.4468,1.82142,7.4405,-1.56857,61.1166,6,0,0,0
0,1405367798,223607,20.097,8.31233,-41.0697,46.4726,-8.49309,-0.412245,4.13113,9.4535,2.72561,7.97991,-0.834555,61.1815,5,0,0,0
0,1405367799,224608,20.2813,8.18483,-41.6885,47.0771,-8.4932,-0.407986,4.12336,9.45003,2.27162,7.38465,-1.10557,61.2513,6,0,0,0
0,1405367800,225615,19.5308,6.94357,-42.0205,46.855,-8.46622,-0.416508,4.12938,9.4288,1.44469,8.04415,-1.21396,61.3285,5,0,0,0
0,1405367801,226626,20.1861,6.83619,-42.7219,47.7428,-8.47094,-0.421217,4.14481,9.44001,2.93626,6.91729,-0.981662,61.4092,6,0,0,0
0,1405367802,227629,20.4533,8.16544,-41.4463,46.9341,-8.46597,-0.432368,4.14172,9.43469,2.64908,7.11794,-1.15979,61.344,7,0,0,0
0,1405367803,228634,20.0929,8.72145,-40.6756,46.1984,-8.48293,-0.407931,4.14494,9.45024,1.11084,8.09464,-2.03341,61.5566,6,0,0,0
0,1405367804,229642,20.4986,8.49269,-41.2719,46.8582,-8.49857,-0.420211,4.1285,9.45763,1.72929,7.64191,-1.85258,61.5674,7,0,0,0
0,1405367805,230643,19.9248,7.54472,-41.7734,46.8928,-8.49528,-0.412174,4.13837,9.45864,2.54182,8.87308,-1.09073,61.7333,6,0,0,0
0,1405367806,231652,19.9635,6.69279,-42.2292,47.1873,-8.49486,-0.365742,4.14605,9.45971,1.91917,8.42341,-1.82802,61.7181,6,0,0,0
0,1405367807,232661,19.8713,7.06439,-42.3736,47.3318,-8.47536,-0.412196,4.1179,9.43179,2.71909,7.42366,-1.71192,61.8637,6,0,0,0
0,1405367808,233666,20.0692,8.4188,-41.0344,46.4485,-8.4719,-0.423935,4.1192,9.42978,3.35072,8.31663,-1.67736,61.9585,6,0,0,0
0,1405367809,234670,20.3,8.77602,-41.1909,46.7526,-8.47927,-0.406437,4.10129,9.42782,3.29835,7.70321,-2.54022,61.9914,7,0,0,0
0,1405367810,235679,20.0006,8.85437,-40.5415,46.0656,-8.47076,-0.422122,4.13592,9.43598,-0.11536,8.33447,-2.18047,62.1472,6,0,0,0
0,1405367811,236682,19.6715,7.06343,-42.409,47.2798,-8.4926,-0.427186,4.16046,9.46659,0.332828,8.13982,-1.73645,62.218,6,0,0,0
0,1405367812,237687,19.5328,6.60186,-42.5654,47.2962,-8.48845,-0.411006,4.14085,9.45353,2.56227,8.73461,-1.26122,62.2683,7,0,0,0
0,1405367813,238692,20.3331,7.91123,-41.2946,46.704,-8.47671,-0.416092,4.11539,9.43208,0.112174,7.09908,-1.80543,62.4118,5,0,0,0
0,1405367814,239699,20.2527,7.85984,-40.7522,46.1811,-8.47928,-0.415182,4.12694,9.43939,2.40205,7.46448,-2.87761,62.5194,7,0,0,0
0,1405367815,240707,20.3465,8.87235,-41.0109,46.6325,-8.49476,-0.42603,4.14097,9.45992,2.40656,7.93617,-1.97133,62.4928,5,0,0,0
0,1405367816,241711,19.7634,7.25606,-41.9034,46.8949,-8.49522,-0.409929,4.125,9.45264,3.38329,7.5867,-0.657633,62.5724,6,0,0,0
0,1405367817,242716,20.0899,7.1293,-42.6031,47.6388,-8.4903,-0.416952,4.13853,9.45444,3.55296,7.93524,-1.31187,62.6197,7,0,0,0
0,1405367818,243719,19.3364,7.22794,-41.9891,46.7891,-8.49475,-0.420659,4.1425,9.46034,3.1848,7.57778,-2.20155,62.5737,7,0,0,0
0,1405367819,244731,20.3946,8.47519,-41.1216,46.6771,-8.49524,-0.424147,4.12526,9.4534,2.8858,8.12438,-0.742354,62.7032,6,0,0,0
0,1405367820,245738,20.8331,9.10234,-40.8041,46.7102,-8.4788,-0.430362,4.14951,9.44953,2.12017,7.33641,-0.781533,62.8929,6,0,0,0
0,1405367821,246744,20.5184,8.85981,-40.8186,46.5367,-8.47521,-0.429902,4.14421,9.44397,1.14232,7.86201,-2.33095,62.903,7,0,0,0
0,1405367822,247753,19.4415,6.8247,-41.9294,46.7185,-8.47863,-0.406831,4.13434,9.44168,0.904194,7.52311,-1.74004,62.9368,7,0,0,0
0,1405367823,248755,19.4283,7.10951,-42.4495,47.2225,-8.5082,-0.40218,4.15027,9.47502,2.52291,7.30383,-1.7811,63.1118,5,0,0,0
0,1405367824,249760,20.2248,7.87808,-41.2688,46.6285,-8.49943,-0.423861,4.17192,9.4776,2.70028,8.45237,-2.01696,63.0225,7,0,0,0
0,1405367825,250762,20.4821,8.42046,-40.9351,46.5414,-8.48362,-0.456636,4.10675,9.43641,3.50213,8.12639,-2.55727,63.1142,6,0,0,0
0,1405367826,251766,20.4559,8.76907,-40.7918,46.4684,-8.49137,-0.41613,4.1508,9.46075,2.39113,8.19417,-1.23925,63.1711,7,0,0,0
0,1405367827,252779,19.9645,7.81517,-41.4731,46.687,-8.47793,-0.423389,4.10566,9.42926,-0.0543649,9.48788,-1.02212,63.2775,7,0,0,0
0,1405367828,253788,20.0527,8.55446,-41.1206,46.5424,-8.49947,-0.424825,4.14019,9.46376,3.70162,8.31465,-2.2679,63.2758,6,0,0,0
0,1405367829,254793,20.3498,8.79606,-40.8576,46.4847,-8.48074,-0.426903,4.12522,9.44048,1.88885,8.23494,-1.77309,63.4359,6,0,0,0
0,1405367830,255797,20.3008,8.90506,-40.8106,46.4427,-8.48783,-0.432176,4.13835,9.45283,3.06944,7.54082,-1.07132,63.4114,7,0,0,0
0,1405367831,256808,20.6474,9.46146,-40.3735,46.3234,-8.48839,-0.441233,4.12285,9.44698,2.31389,8.24512,-1.98238,63.4877,7,0,0,0
0,1405367832,257815,20.2169,8.93974,-40.6947,46.3109,-8.54975,-0.42814,4.05318,9.47153,2.72518,8.03198,-1.8066,63.3563,6,0,0,0
0,1405367833,258824,20.4325,9.07997,-40.6239,46.3706,-8.50102,-0.406258,4.13664,9.46278,2.59237,8.80937,-3.16597,63.5553,7,0,0,0
0,1405367834,259830,20.5025,8.629,-40.3791,46.1008,-8.47183,-0.38191,4.14486,9.43915,1.11269,10.3641,-1.49415,63.6203,7,0,0,0
0,1405367835,260837,20.4155,8.86377,-40.9636,46.6194,-8.48298,-0.403707,4.11473,9.43689,0.939669,8.82651,-1.9531,63.6307,6,0,0,0
0,1405367836,261840,20.215,9.00414,-40.7239,46.3482,-8.48361,-0.426844,4.14922,9.45356,2.51089,8.50863,-1.50927,63.7066,7,0,0,0
0,1405367837,262844,20.2061,8.7203,-41.0493,46.5766,-8.48286,-0.414205,4.12157,9.44023,3.40578,7.49927,-2.17237,63.7847,6,0,0,0
0,1405367838,263849,20.2582,9.19459,-40.5183,46.2241,-8.49404,-0.419368,4.13749,9.45746,1.05852,9.15351,-1.19909,63.991,6,0,0,0
0,1405367839,264856,20.4056,8.80769,-40.5679,46.2571,-8.47851,-0.436028,4.12941,9.44073,1.5942,8.43148,-2.09083,63.9427,7,0,0,0
0,1405367840,265863,20.431,8.80595,-40.5897,46.2871,-8.47173,-0.443401,4.13195,9.43609,1.41303,8.75817,-0.754113,63.9774,7,0,0,0
0,1405367841,266871,20.3682,8.6272,-40.8211,46.429,-8.48531,-0.426098,4.14367,9.45262,2.26064,8.012,-2.17559,64.0079,6,0,0,0
0,1405367842,267878,20.4235,8.77997,-40.7106,46.3849,-8.4791,-0.412471,4.12463,9.4381,1.71105,7.57718,-2.05534,64.068,6,0,0,0
0,1405367843,268889,20.234,8.77145,-40.688,46.2803,-8.49471,-0.425917,4.12982,9.45499,0.319588,7.74467,-1.79995,64.1409,7,0,0,0
0,1405367844,269893,20.4168,9.1484,-40.6205,46.3742,-8.47212,-0.389808,4.12261,9.42999,2.27378,8.35927,-1.30662,64.1771,6,0,0,0
0,1405367845,270896,20.3971,8.91315,-40.5934,46.2959,-8.49193,-0.463858,4.04724,9.4185,2.77169,7.64692,-1.2666,64.3064,6,0,0,0
0,1405367846,271914,20.1964,8.2633,-41.4754,46.8656,-8.48733,-0.431907,4.10494,9.43779,1.45391,7.70303,-2.74426,64.3846,6,0,0,0
0,1405367847,272918,20.2072,8.76064,-40.8033,46.368,-8.50247,-0.402776,4.14265,9.46656,2.59916,9.32074,-2.13515,64.4816,6,0,0,0
0,1405367848,273921,20.4037,8.70536,-40.7058,46.3579,-8.49546,-0.439395,4.14346,9.46225,1.55816,8.47772,-1.14968,64.3978,6,0,0,0
0,1405367849,274925,20.4083,8.97417,-40.8117,46.5041,-8.48853,-0.43425,4.12119,9.44606,1.66608,8.75957,-1.87417,64.5858,7,0,0,0
0,1405367850,275936,20.1899,8.67097,-40.7418,46.2895,-8.47512,-0.408924,4.1121,9.42891,2.13641,8.6056,-2.48334,64.6364,5,0,0,0
0,1405367851,276945,20.3811,9.10582,-40.6716,46.3949,-8.48751,-0.432938,4.12331,9.446,1.80012,8.91073,-1.74201,64.7595,7,0,0,0
0,1405367852,277953,20.2154,9.0142,-40.4478,46.108,-8.488,-0.385722,4.1319,9.44815,1.49234,8.29328,-2.67738,64.7235,7,0,0,0
0,1405367853,278964,20.3079,8.94135,-40.9094,46.5397,-8.49336,-0.42602,4.12535,9.45183,3.29042,9.31674,-3.11667,64.8175,7,0,0,0
0,1405367854,279965,20.1615,8.75498,-40.7051,46.2605,-8.49093,-0.417888,4.10821,9.44182,2.97612,7.20478,-1.89248,64.9218,5,0,0,0
0,1405367855,280972,20.4334,9.00497,-40.8588,46.5624,-8.4995,-0.418598,4.13708,9.46214,2.56013,9.14915,-1.7411,64.9418,6,0,0,0
0,1405367856,281980,20.2302,9.15658,-40.5007,46.1889,-8.48111,-0.417565,4.13153,9.44315,1.13422,9.4846,-2.11373,64.8339,7,0,0,0
0,1405367857,282988,20.1348,8.99308,-40.952,46.5119,-8.49358,-0.397953,4.13153,9.45351,2.58899,9.17361,-1.60392,65.012,6,0,0,0
0,1405367858,283990,20.6087,9.05138,-40.9556,46.7333,-8.48119,-0.430853,4.13235,9.44418,1.59845,8.8719,-1.76693,65.0684,6,0,0,0
0,1405367859,284992,20.3053,8.97919,-40.7422,46.3989,-8.49091,-0.433875,4.14529,9.45872,1.34363,8.25002,-2.30897,65.1686,5,0,0,0
0,1405367860,285999,20.6896,9.05923,-40.4102,46.2937,-8.4785,-0.420346,4.1512,9.44956,-0.16529,7.68615,-2.39098,65.2101,7,0,0,0
0,1405367862,287009,20.3152,8.82944,-40.4726,46.1378,-8.49422,-0.428038,4.11164,9.44672,2.02138,9.19894,-2.17222,65.3196,7,0,0,0
0,1405367863,288012,20.5036,9.181,-40.787,46.5647,-8.4695,-0.397508,4.17199,9.44965,3.27766,7.78157,-0.962491,65.2473,7,0,0,0
0,1405367864,289020,20.2556,9.08921,-40.6948,46.357,-8.51172,-0.426975,4.11472,9.46375,1.52819,8.0521,-2.6233,65.2859,7,0,0,0
0,1405367865,290024,20.3094,9.08713,-40.6558,46.3459,-8.48113,-0.426815,4.15229,9.45269,1.57696,7.95269,-1.44372,65.3791,6,0,0,0
0,1405367866,291032,20.383,9.21056,-40.5633,46.3216,-8.49332,-0.447592,4.12037,9.45063,1.23884,8.25687,-2.41005,65.3762,7,0,0,0
0,1405367867,292043,20.2792,9.13398,-40.2702,46.0039,-8.47289,-0.424342,4.12502,9.43322,0.49964,9.51463,-1.21781,65.4223,7,0,0,0
0,1405367868,293051,20.1797,9.24471,-40.5876,46.2606,-8.50191,-0.407996,4.113,9.45334,3.11081,9.19345,-1.83457,65.3924,6,0,0,0
0,1405367869,294054,20.4511,9.2373,-40.541,46.3373,-8.51122,-0.437869,4.12961,9.47028,1.20151,8.47236,-1.46252,65.4665,6,0,0,0
0,1405367870,295058,20.3122,8.98479,-40.5808,46.2614,-8.48553,-0.431878,4.10851,9.43772,1.9875,8.1821,-2.42115,65.539,4,0,0,0
0,1405367871,296060,20.5342,9.19209,-40.1298,46.0059,-8.5415,-0.433582,4.13047,9.49768,1.18869,8.34349,-1.85164,65.5031,7,0,0,0
0,1405367872,297071,20.5204,9.17974,-40.4956,46.3168,-8.49174,-0.42364,4.09907,9.43883,1.21776,8.68183,-1.22855,65.5347,6,0,0,0
0,1405367873,298078,20.7197,8.92043,-40.5009,46.3595,-8.503,-0.449865,4.0815,9.44256,1.75373,8.2347,-1.04252,65.6748,7,0,0,0
0,1405367874,299085,20.4074,9.21042,-40.6231,46.3846,-8.49713,-0.446091,4.09364,9.44236,2.20913,9.55149,-2.15701,65.6504,7,0,0,0
0,1405367875,300086,20.4902,9.05606,-40.7178,46.4737,-8.50667,-0.435672,4.11341,9.45904,2.20795,8.88321,-2.0797,65.8295,6,0,0,0
0,1405367876,301094,20.5727,9.14673,-40.5823,46.4093,-8.46097,-0.431012,4.11545,9.41863,3.01129,9.25364,-1.02776,65.7645,7,0,0,0
0,1405367877,302096,20.5535,9.28351,-40.7359,46.5623,-8.49826,-0.430704,4.09866,9.44483,2.56353,8.54443,-0.8321,65.7175,6,0,0,0
0,1405367878,303100,20.6767,9.24347,-40.5102,46.4117,-8.51622,-0.409314,4.1045,9.46258,3.29219,9.12027,-2.86635,65.5181,5,0,0,0
0,1405367879,304102,20.6223,9.47516,-40.4088,46.3458,-8.49032,-0.473368,4.09381,9.43763,2.24951,8.42612,-1.25545,65.7178,6,0,0,0
0,1405367880,305109,20.6062,9.56359,-40.6844,46.5972,-8.49553,-0.441386,4.11566,9.45027,2.32811,7.9334,-2.62113,65.6459,6,0,0,0
0,1405367881,306114,20.8939,9.05124,-40.6398,46.5841,-8.50048,-0.42216,4.08242,9.43942,2.90891,8.21941,-1.49974,65.7248,6,0,0,0
0,1405367882,307118,20.7353,9.19968,-40.8243,46.7034,-8.50586,-0.43092,4.08883,9.44743,1.93786,8.44693,-2.74885,65.6209,7,0,0,0
0,1405367883,308127,20.6149,9.66085,-40.1485,46.1542,-8.49551,-0.435579,4.0892,9.43849,0.9895,8.85978,-1.05899,65.8127,7,0,0,0
0,1405367884,309136,20.6312,9.78993,-40.3741,46.3849,-8.50188,-0.461787,4.06847,9.4365,3.04681,8.82931,-1.55921,65.8043,7,0,0,0
0,1405367885,310142,20.5358,9.61909,-40.7321,46.6192,-8.51577,-0.421204,4.04497,9.43703,3.27167,8.16386,-2.69875,65.8296,6,0,0,0
0,1405367886,311149,20.6693,9.24314,-40.6673,46.5455,-8.51312,-0.431337,4.07524,9.44812,1.85369,9.03065,-1.5521,65.6225,6,0,0,0
0,1405367887,312154,20.6357,9.88392,-40.1963,46.2522,-8.51304,-0.425749,4.08591,9.4524,2.35735,8.80143,-1.2574,65.6089,7,0,0,0
0,1405367888,313164,20.1782,9.33045,-40.6729,46.3519,-8.51206,-0.444059,4.05346,9.43837,1.86487,9.14099,-1.82775,65.6131,6,0,0,0
0,1405367889,314170,20.2542,8.31081,-41.8249,47.2083,-8.49806,-0.448103,4.07627,9.43577,0.738129,8.28034,-2.24254,65.5478,7,0,0,0
0,1405367890,315172,19.7064,7.75124,-41.2883,46.402,-8.49066,-0.438954,4.08733,9.43346,1.6211,8.38708,-2.2281,65.5536,5,0,0,0
0,1405367891,316182,20.1888,8.25155,-41.7635,47.1155,-8.50121,-0.444379,4.08353,9.44157,2.17814,9.56377,-2.35794,65.5646,8,0,0,0
0,1405367892,317188,20.2481,8.20551,-41.8107,47.1747,-8.46886,-0.447304,4.07651,9.40955,1.52867,8.05324,-3.07081,65.6164,7,0,0,0
0,1405367893,318190,20.2345,8.03195,-41.4449,46.8148,-8.50358,-0.439083,4.09242,9.44731,2.47368,7.2505,-1.68947,65.6189,6,0,0,0
0,1405367894,319195,20.2789,8.12187,-41.6761,47.0542,-8.48402,-0.42931,4.12602,9.44388,0.4495,9.30006,-2.25165,65.6575,6,0,0,0
0,1405367895,320635,20.1051,8.21348,-41.576,46.9068,-8.49254,-0.414066,4.05511,9.42012,1.67915,8.5465,-1.56568,65.7516,2,0,0,0
0,1405367896,321639,20.0729,8.46029,-41.4916,46.8621,-8.51326,-0.429049,4.05396,9.43897,1.29211,9.39497,-2.42981,65.6683,6,0,0,0
0,1405367897,322651,20.2386,8.37316,-41.3525,46.7946,-8.50063,-0.423002,4.044,9.42304,0.917448,8.3239,-1.72974,65.8355,7,0,0,0
0,1405367898,323665,20.9705,9.56899,-40.4892,46.5908,-8.50143,-0.466951,4.03265,9.42097,2.08752,8.8043,-1.60345,65.732,7,0,0,0
0,1405367899,324674,20.8479,10.1994,-40.4327,46.6204,-8.44422,-0.397085,4.05323,9.37503,0.760443,8.50011,-1.87809,65.8035,7,0,0,0
0,1405367900,325678,20.1518,8.21939,-41.3836,46.7574,-8.48177,-0.432888,4.01341,9.39337,2.6518,8.07052,-1.3179,65.967,7,0,0,0
0,1405367901,326682,20.4658,8.38207,-41.5621,47.0799,-8.50931,-0.445609,4.05321,9.43586,2.00434,8.56313,-1.41545,65.9523,7,0,0,0
0,1405367902,327694,20.4017,8.58192,-41.5839,47.1073,-8.5223,-0.450672,4.06252,9.45181,0.985775,8.73963,-2.44213,65.9728,7,0,0,0
0,1405367903,328705,20.3117,8.13628,-41.2417,46.6866,-8.50228,-0.459762,4.04376,9.42614,2.07085,7.6499,-2.49227,65.9151,5,0,0,0
0,1405367904,329714,20.1708,8.72616,-41.5331,46.9895,-8.50037,-0.461207,4.03042,9.41878,1.53876,9.02382,-2.20011,66.0784,7,0,0,0
0,1405367905,330718,20.4763,8.19267,-41.0418,46.5921,-8.49764,-0.434312,4.0513,9.42399,0.486441,7.50587,-1.97473,65.9849,6,0,0,0
0,1405367906,331725,20.1492,8.75593,-41.5533,47.0036,-8.48104,-0.435703,4.01401,9.39309,2.53434,7.86535,-2.09659,65.9664,6,0,0,0
0,1405367907,332741,20.4842,8.50055,-41.7356,47.2623,-8.48588,-0.460814,4.00606,9.39527,1.9934,8.84901,-1.31899,66.0917,6,0,0,0
0,1405367908,333744,20.9913,9.54509,-40.6431,46.7291,-8.49641,-0.44809,4.06684,9.43022,1.803,9.11824,-1.01961,65.9845,6,0,0,0
0,1405367909,334746,20.6636,9.75213,-40.4655,46.4709,-8.51909,-0.44864,4.05196,9.44429,2.69208,8.7897,-1.60735,65.9531,7,0,0,0
0,1405367910,335752,20.9093,9.89782,-40.5008,46.642,-8.50486,-0.426486,4.02646,9.41949,-0.43654,8.69834,-2.51839,65.9835,6,0,0,0
0,1405367911,336761,21.1094,9.47293,-40.4106,46.5657,-8.5003,-0.468875,3.97391,9.39505,1.64914,8.56348,-1.85968,65.965,6,0,0,0
0,1405367912,337767,20.9172,9.74262,-40.2096,46.3601,-8.51513,-0.46688,4.06014,9.44511,1.87053,8.59665,-1.74479,65.9916,7,0,0,0
0,1405367913,338774,20.8152,9.90614,-40.26,46.3925,-8.52004,-0.451282,4.00866,9.42678,0.993206,9.16022,-1.88983,66.0579,6,0,0,0
0,1405367914,339780,21.1855,9.96708,-40.5137,46.7924,-8.50007,-0.459075,3.98819,9.4004,0.933554,8.71678,-1.69439,66.073,7,0,0,0
0,1405367915,340787,21.3515,9.63529,-40.2905,46.6052,-8.46547,-0.512475,3.97207,9.36505,2.58954,7.98079,-1.9296,65.9702,5,0,0,0
0,1405367916,341794,21.188,10.0878,-40.3372,46.6668,-8.49943,-0.440733,4.02545,9.41482,2.00612,9.02653,-1.73074,66.023,6,0,0,0
0,1405367917,342799,21.0088,9.56929,-40.3833,46.5161,-8.50383,-0.4494,4.0409,9.42581,2.56742,8.72155,-1.64299,66.0218,5,0,0,0
0,1405367918,343804,21.3763,9.83344,-40.5858,46.9132,-8.49638,-0.468397,4.02694,9.41404,1.60507,9.58496,-1.89126,65.9333,6,0,0,0
0,1405367919,344805,21.0609,9.91234,-40.2049,46.4569,-8.50764,-0.475096,4.00926,9.417,1.72755,8.50001,-1.69331,65.9714,6,0,0,0
0,1405367920,345816,21.2598,9.57413,-40.5378,46.7649,-8.53082,-0.443578,3.98533,9.42627,1.45395,7.92131,-2.3319,65.9591,5,0,0,0
0,1405367921,346821,21.0835,9.99812,-40.3241,46.5887,-8.50427,-0.444658,4.00458,9.41047,1.89239,8.45537,-1.26625,66.0009,5,0,0,0
0,1405367922,347828,21.2325,9.9244,-40.5305,46.8191,-8.54206,-0.433876,4.02387,9.45233,0.65392,8.06399,-2.45196,66.0349,7,0,0,0
0,1405367923,348837,20.9319,10.0521,-40.23,46.4504,-8.48126,-0.483619,4.03359,9.40401,2.23279,9.27641,-3.03136,65.9402,7,0,0,0
0,1405367924,349847,20.5556,8.19453,-41.5779,47.0999,-8.52027,-0.438189,3.98206,9.41509,1.31513,8.71507,-2.18635,65.9317,8,0,0,0
0,1405367925,350850,20.1639,8.80741,-41.4954,46.9683,-8.49664,-0.427952,4.02427,9.41121,0.42795,8.52079,-2.77485,65.9392,7,0,0,0
0,1405367926,351863,20.4942,8.56428,-41.2494,46.8495,-8.52069,-0.452108,4.0204,9.4324,2.47339,9.46744,-2.46561,66.0271,7,0,0,0
0,1405367927,352867,21.3213,9.84085,-40.455,46.7766,-8.52033,-0.433651,4.00955,9.42659,1.23499,8.14916,-1.091,66.0291,6,0,0,0
0,1405367928,353872,20.9591,10.1872,-40.5638,46.7812,-8.51363,-0.453874,4.03104,9.43066,2.00938,8.28626,-2.56385,66.0416,7,0,0,0
0,1405367929,354874,21.3041,10.4701,-40.2816,46.7557,-8.47883,-0.508108,4.03312,9.40291,1.88554,8.21578,-2.55209,65.9185,7,0,0,0
0,1405367930,355886,20.4995,7.35252,-41.2967,46.6873,-8.51711,-0.474118,4.05796,9.44633,2.18399,8.24124,-2.5768,65.8554,6,0,0,0
0,1405367931,356887,20.637,6.99284,-41.1763,46.5862,-8.49932,-0.503484,4.022,9.41639,1.33058,7.94477,-2.94911,65.8966,7,0,0,0
0,1405367932,357897,20.5011,7.70805,-41.5073,46.9315,-8.50597,-0.454587,4.00819,9.41402,1.50752,8.67659,-1.7239,65.8274,7,0,0,0
0,1405367933,358899,20.6554,7.41037,-41.3305,46.795,-8.49194,-0.483653,3.97089,9.38696,2.79959,8.73918,-1.00196,65.6908,6,0,0,0
0,1405367934,359906,20.6814,7.27747,-41.2356,46.7018,-8.51067,-0.454028,4.03469,9.42955,2.084,8.809,-1.16205,65.4496,7,0,0,0
0,1405367935,360915,20.5798,7.44632,-41.4531,46.8758,-8.49807,-0.463207,4.01976,9.41224,-0.0414845,8.74363,-2.70381,65.4298,5,0,0,0
0,1405367936,361922,20.5211,7.43594,-41.6368,47.011,-8.51115,-0.445053,4.01538,9.4213,1.82949,8.2059,-1.40664,65.4963,7,0,0,0
0,1405367937,362925,20.7276,9.12711,-39.869,45.8527,-8.51934,-0.446181,4.03601,9.43756,2.10059,8.11381,-1.86802,65.5396,8,0,0,0
0,1405367938,363927,20.7158,9.04282,-40.2796,46.1883,-8.49221,-0.456036,4.02442,9.40859,0.659808,7.95536,-0.926665,65.4786,7,0,0,0
0,1405367939,364935,21.0745,9.16726,-39.9772,46.1123,-8.51129,-0.466655,3.99016,9.41176,0.850335,7.45812,-2.2956,65.4035,7,0,0,0
0,1405367940,365941,21.012,9.07571,-39.3983,45.5642,-8.51278,-0.474366,4.02522,9.42841,3.75636,9.37332,-1.3777,65.4399,6,0,0,0
0,1405367941,366950,21.3067,8.84628,-39.9373,46.1218,-8.53539,-0.463262,4.00691,9.44049,0.816795,8.16546,-2.16489,65.5076,6,0,0,0
0,1405367942,367952,21.2289,8.74505,-39.7953,45.9435,-8.50251,-0.465044,4.01603,9.41475,1.9895,9.35412,-1.92329,65.4288,6,0,0,0
0,1405367943,368958,21.018,9.02362,-39.9409,46.0267,-8.50269,-0.449675,3.99645,9.40583,0.94866,9.17822,-1.80289,65.4044,6,0,0,0
0,1405367944,369967,20.9001,9.19468,-40.2308,46.2587,-8.50395,-0.470685,4.02704,9.42103,1.67749,9.61432,-0.429022,65.4906,7,0,0,0
0,1405367945,370973,21.4581,8.90793,-39.343,45.6911,-8.50136,-0.429195,4.01385,9.41107,2.34596,8.19496,-2.63926,65.4688,6,0,0,0
0,1405367946,371985,21.1593,8.84335,-39.9384,46.0543,-8.52281,-0.482034,4.03472,9.44191,2.10958,9.21892,-1.8897,65.3877,6,0,0,0
0,1405367947,372991,20.6462,9.05022,-40.2702,46.1504,-8.48338,-0.431263,4.03065,9.40212,1.03225,8.95639,-2.44291,65.4364,7,0,0,0
0,1405367949,374001,21.2814,8.87529,-39.5247,45.7589,-8.50557,-0.452896,4.04697,9.43015,1.13507,8.90645,-3.04524,65.5345,7,0,0,0
0,1405367950,375005,21.7855,8.48983,-39.6456,46.0267,-8.51872,-0.460219,4.00284,9.42354,1.34347,9.02362,-1.83813,65.519,6,0,0,0
0,1405367951,376013,21.0457,8.87851,-40.203,46.2388,-8.52664,-0.470267,3.97436,9.41914,1.91364,8.09484,-2.13148,65.6341,6,0,0,0
0,1405367952,377015,20.8053,9.12929,-40.0902,46.0807,-8.54301,-0.469689,3.97479,9.43412,1.17222,8.96423,-1.36429,65.5328,7,0,0,0
0,1405367953,378025,21.5327,8.91084,-39.8709,46.1817,-8.49469,-0.468603,4.01221,9.40623,0.385552,10.0476,-2.62807,65.4647,6,0,0,0
0,1405367954,379034,21.1387,9.02125,-40.433,46.5087,-8.51144,-0.476098,3.9942,9.41408,0.983207,9.23386,-2.44903,65.5616,7,0,0,0
0,1405367955,380039,21.32,9.01246,-39.4019,45.6977,-8.51834,-0.444424,3.98919,9.41665,0.951627,9.49597,-2.30265,65.5751,6,0,0,0
0,1405367956,381040,21.0742,8.93778,-40.1784,46.2418,-8.51658,-0.475875,4.01269,9.42657,3.49221,8.04625,-2.12178,65.6396,6,0,0,0
0,1405367957,382044,21.8655,8.69711,-39.5516,46.0225,-8.48365,-0.462625,4.0149,9.39711,2.59008,7.85295,-1.40522,65.6688,8,0,0,0
0,1405367958,383046,22.2791,8.27376,-39.6326,46.212,-8.49524,-0.461981,4.03632,9.41671,1.6473,8.38715,-0.954388,65.6638,6,0,0,0
0,1405367959,384055,21.114,8.63916,-39.688,45.7774,-8.52255,-0.458628,4.05215,9.44797,1.61683,8.35327,-2.45221,65.7276,7,0,0,0
0,1405367960,385058,22.1208,8.5535,-39.4139,45.9994,-8.52264,-0.4522,4.03624,9.44092,2.77417,8.87217,-2.91531,65.8065,6,0,0,0
0,1405367961,386068,20.73,9.17378,-39.7856,45.7907,-8.52907,-0.43934,4.02744,9.44236,1.02884,7.66985,-2.34721,65.7006,6,0,0,0
0,1405367962,387076,21.6719,8.49482,-39.4618,45.8156,-8.51013,-0.444641,4.02322,9.42371,1.93602,9.03382,-3.0094,65.7517,6,0,0,0
0,1405367963,388082,21.9358,8.65076,-39.2685,45.8042,-8.51817,-0.454714,4.06716,9.45028,2.32991,8.81194,-0.934402,65.829,6,0,0,0
0,1405367964,389089,21.8302,8.54248,-39.2306,45.7009,-8.49761,-0.448863,4.03658,9.41833,1.52526,9.20414,-1.85213,65.8789,6,0,0,0
0,1405367965,390090,21.747,8.67172,-39.4554,45.8788,-8.50766,-0.449264,4.04611,9.4315,1.76405,8.57814,-2.35941,65.8792,6,0,0,0
0,1405367966,391102,21.5084,8.73379,-39.3404,45.6789,-8.51579,-0.460716,4.0529,9.44229,2.31361,8.93352,-1.60766,65.9098,6,0,0,0
0,1405367967,392110,20.8805,9.46075,-39.9071,46.0226,-8.50854,-0.451859,4.03342,9.42697,2.08043,7.8598,-2.57682,65.8897,6,0,0,0
0,1405367968,393118,21.5702,8.87687,-39.4209,45.8048,-8.51318,-0.456828,4.01519,9.42362,0.550593,7.96135,-2.5361,65.9684,5,0,0,0
0,1405367969,394123,21.6648,8.71036,-39.2067,45.6333,-8.51555,-0.445747,4.02368,9.42885,0.102951,9.26911,-2.4709,66.0349,6,0,0,0
0,1405367970,395127,21.902,8.63438,-39.3936,45.8924,-8.49688,-0.431339,4.01243,9.40652,0.750884,8.09521,-1.32775,66.2501,5,0,0,0
0,1405367971,396139,21.5111,8.42223,-39.5333,45.788,-8.5105,-0.451916,4.04992,9.43582,1.96164,8.4409,-2.87105,66.3122,6,0,0,0
0,1405367972,397148,21.5726,8.97044,-39.1539,45.5946,-8.51803,-0.457379,4.07561,9.45392,1.77886,8.79762,-1.8709,66.3404,6,0,0,0
0,1405367973,398151,21.7592,8.99973,-39.4001,45.9002,-8.5024,-0.450315,4.0431,9.42551,0.629472,9.22643,-3.16322,66.326,7,0,0,0
0,1405367974,399152,21.4345,8.83265,-39.2964,45.6252,-8.50598,-0.42982,4.04412,9.42822,1.83627,9.44268,-2.51126,66.429,6,0,0,0
0,1405367975,400153,21.5679,8.66742,-39.2822,45.6441,-8.50787,-0.43656,4.0675,9.44028,0.0991177,9.43249,-2.23547,66.5277,7,0,0,0
0,1405367976,401158,21.723,8.29707,-39.4025,45.7524,-8.49868,-0.42944,4.01896,9.41085,2.15073,7.76052,-2.61664,66.5408,7,0,0,0
0,1405367977,402161,21.6651,8.57806,-39.7031,46.0358,-8.50696,-0.437236,4.04619,9.43033,0.373697,8.3383,-2.60985,66.5334,6,0,0,0
0,1405367978,403166,21.7076,8.47811,-39.1935,45.5986,-8.5041,-0.459753,4.05175,9.43122,0.880501,8.6217,-2.27042,66.611,7,0,0,0
0,1405367979,404168,22.0465,8.59102,-39.2199,45.8045,-8.5092,-0.444781,4.02356,9.42303,0.453629,9.34511,-2.57889,66.7279,7,0,0,0
0,1405367980,405171,21.528,8.55265,-39.0921,45.44,-8.50843,-0.443282,4.04003,9.4293,1.35275,8.50227,-2.47829,66.6876,5,0,0,0
0,1405367981,406175,21.7405,8.69539,-38.9838,45.4752,-8.49297,-0.431912,4.08284,9.43327,3.30662,9.30016,-1.61111,66.7781,7,0,0,0
0,1405367982,407180,21.9227,8.32529,-39.1075,45.5994,-8.49981,-0.445373,4.02634,9.41576,2.95332,8.83808,-2.4807,66.7863,6,0,0,0
0,1405367983,408187,21.9276,8.59938,-39.4976,45.9872,-8.48999,-0.45453,4.04151,9.41383,-0.0355347,10.7,-2.08012,66.731,6,0,0,0
0,1405367984,409196,21.7751,8.79339,-39.5274,45.9771,-8.50138,-0.444677,4.01814,9.41364,1.70038,8.31047,-1.08666,66.845,6,0,0,0
0,1405367985,410203,21.4367,8.61107,-39.049,45.3708,-8.49647,-0.447539,4.06022,9.42739,2.16029,9.31205,-2.04749,66.8914,6,0,0,0
0,1405367986,411210,21.7729,8.29882,-39.308,45.6952,-8.49578,-0.43532,4.04641,9.42026,2.22534,8.84965,-1.81141,66.8005,6,0,0,0
0,1405367987,412213,21.424,8.83673,-38.9148,45.2928,-8.50807,-0.441475,4.05614,9.43581,3.0764,8.25468,-1.94416,66.8604,7,0,0,0
0,1405367988,413220,21.6034,8.44715,-38.7735,45.1823,-8.47166,-0.446417,4.07575,9.4117,1.17347,9.0085,-2.2561,66.8798,7,0,0,0
0,1405367989,414231,21.5259,8.83109,-39.2542,45.6317,-8.49881,-0.438746,4.06047,9.42919,1.21526,9.5295,-0.848976,66.9177,7,0,0,0
0,1405367990,415234,21.1406,8.55722,-39.05,45.2223,-8.47096,-0.43415,4.05043,9.39955,2.24658,9.37086,-3.55816,67.0085,6,0,0,0
0,1405367991,416236,21.6384,8.62268,-39.4488,45.8124,-8.52377,-0.434554,4.05493,9.44912,0.0429858,9.06765,-2.2694,66.962,7,0,0,0
0,1405367992,417238,21.638,8.49969,-39.2586,45.6255,-8.48536,-0.423501,4.03012,9.40333,0.494282,8.75909,-2.29611,67.0667,6,0,0,0
0,1405367993,418243,21.399,8.71188,-38.9598,45.2954,-8.54648,-0.53176,3.82006,9.37645,1.99589,10.0574,-1.96665,67.0061,6,0,0,0
0,1405367994,419248,21.7284,9.0087,-39.601,46.0599,-8.55971,-0.503253,3.80698,9.38163,0.594444,9.3802,-2.59125,66.8476,6,0,0,0
0,1405367995,420256,21.8437,8.86764,-39.3194,45.8454,-8.54378,-0.544693,3.77574,9.35677,1.16724,8.20469,-2.51339,66.6412,7,0,0,0
0,1405367996,421259,21.3358,8.97799,-39.1713,45.4996,-8.49579,-0.417776,4.02686,9.41109,0.659062,9.73058,-0.893812,66.771,6,0,0,0
0,1405367997,422267,21.9626,8.37033,-39.0176,45.5499,-8.50619,-0.453468,4.05098,9.43247,1.50861,8.25297,-2.40972,66.5962,6,0,0,0
0,1405367998,423273,21.6579,8.69684,-39.3287,45.7324,-8.49438,-0.455079,4.04026,9.41729,1.80977,8.56182,-2.9282,66.5091,6,0,0,0
0,1405367999,424280,22.1617,8.25601,-39.4546,45.9997,-8.50079,-0.445111,4.05505,9.42894,1.63106,8.99316,-1.69454,66.3935,6,0,0,0
0,1405368000,425289,21.5295,8.45183,-39.2942,45.5959,-8.49322,-0.431372,4.07636,9.43067,1.61664,8.69683,-2.65274,66.3292,6,0,0,0
0,1405368001,426293,21.8598,8.16611,-39.4975,45.8758,-8.49975,-0.441715,4.07037,9.43445,1.09866,8.3312,-1.81004,66.5108,7,0,0,0
0,1405368002,427300,21.6556,8.19112,-39.4206,45.717,-8.49639,-0.421658,4.0909,9.43938,3.4907,8.61421,-2.07555,66.6844,6,0,0,0
0,1405368003,428301,21.5723,8.25272,-39.1571,45.4615,-8.50541,-0.442325,4.03909,9.42613,2.47051,8.99633,-2.35824,66.6912,7,0,0,0
0,1405368004,429304,21.4375,8.73676,-39.5465,45.8239,-8.5141,-0.423669,4.06457,9.44405,1.82936,8.18936,-2.51827,66.77,7,0,0,0
0,1405368005,430308,21.5655,8.4266,-39.3669,45.6709,-8.49595,-0.440048,4.11017,9.44819,0.924948,8.32596,-3.11289,66.8282,7,0,0,0
0,1405368006,431317,21.3102,8.529,-39.4667,45.6562,-8.4992,-0.435512,4.07379,9.43514,2.1373,8.94326,-2.80794,66.8625,7,0,0,0
0,1405368007,432324,21.0939,8.83416,-39.0741,45.2745,-8.48809,-0.43752,4.07,9.42359,1.86982,9.28763,-1.65498,67.0359,7,0,0,0
0,1405368008,433333,21.3775,8.68587,-39.4066,45.6653,-8.4899,-0.440641,4.08059,9.42994,0.704736,9.77678,-1.9349,66.9454,6,0,0,0
0,1405368009,434338,21.5678,8.56685,-39.3718,45.7023,-8.53672,-0.508815,3.83169,9.37104,2.93337,9.4946,-1.74966,67.0402,5,0,0,0
0,1405368010,435341,21.5721,8.4221,-39.2368,45.5611,-8.50065,-0.430733,4.06182,9.43107,0.457811,9.84915,-1.94084,66.8316,6,0,0,0
0,1405368011,436342,21.7631,8.37933,-39.3027,45.7007,-8.50437,-0.444392,4.04497,9.42781,2.85269,9.38065,-3.68162,66.959,6,0,0,0
0,1405368012,437347,21.1366,8.93093,-38.8315,45.1043,-8.50095,-0.444728,4.0338,9.41995,1.58543,8.99876,-1.34066,67.1363,5,0,0,0
0,1405368013,438349,21.9047,8.22521,-39.2629,45.7061,-8.49512,-0.432786,4.04818,9.42031,1.08355,9.23,-1.48284,67.0806,7,0,0,0
0,1405368014,439351,21.688,8.52241,-39.5408,45.8964,-8.48175,-0.426515,4.07683,9.42032,1.64297,9.21885,-2.49416,67.2037,6,0,0,0
0,1405368015,440358,21.8158,8.35956,-39.3247,45.7411,-8.50718,-0.431923,4.07873,9.44429,1.96954,10.3255,-1.25005,67.3168,6,0,0,0
0,1405368016,441368,21.3606,8.93171,-39.0619,45.408,-8.4741,-0.435054,4.05315,9.40359,2.10644,9.9397,-2.64386,67.3706,6,0,0,0
0,1405368017,442376,21.4092,8.52244,-39.3837,45.6296,-8.48651,-0.416644,4.05889,9.41643,1.26817,7.49406,-2.42249,67.5095,7,0,0,0
0,1405368018,443384,21.1713,8.90437,-39.2515,45.4774,-8.48379,-0.419647,4.06272,9.41576,1.35433,8.79102,-1.59044,67.6178,7,0,0,0
0,1405368019,444385,21.3653,8.75998,-39.3033,45.5847,-8.49943,-0.442435,4.08516,9.44059,1.02893,9.65753,-2.3265,67.6451,6,0,0,0
0,1405368020,445386,21.4964,8.67889,-39.3817,45.6983,-8.49963,-0.42638,4.07457,9.43545,2.8875,9.26578,-1.71807,67.5389,6,0,0,0
0,1405368021,446395,21.601,8.25969,-39.4443,45.724,-8.49574,-0.451119,4.06846,9.43045,2.0716,9.75959,-2.08416,67.6822,6,0,0,0
0,1405368022,447401,21.6332,8.47516,-39.1724,45.5445,-8.47504,-0.447017,4.08891,9.42047,1.10587,9.01092,-4.25714,67.8106,6,0,0,0
0,1405368023,448405,21.3551,8.53804,-39.3675,45.5932,-8.49392,-0.447963,4.09665,9.44087,1.95748,8.29413,-2.56111,67.8494,7,0,0,0
0,1405368024,449407,21.5526,8.11329,-39.2173,45.479,-8.51046,-0.416544,4.10156,9.45644,2.27127,7.99828,-2.33962,67.7836,7,0,0,0
0,1405368025,450416,21.3938,8.81211,-39.7054,45.955,-8.49772,-0.438139,4.07862,9.43601,2.97547,9.50605,-1.62181,67.8908,6,0,0,0
0,1405368026,451421,21.4891,8.34673,-39.2893,45.5532,-8.5108,-0.420992,4.07176,9.44406,1.71543,8.87896,-2.41042,67.9355,7,0,0,0
0,1405368027,452426,21.1403,8.46832,-39.1853,45.3223,-8.4896,-0.43102,4.08913,9.43293,2.68029,8.63631,-1.69115,68.0303,6,0,0,0
0,1405368028,453430,21.4463,8.64634,-39.4975,45.7685,-8.51078,-0.436536,4.08741,9.4515,3.37729,7.84452,-2.14163,68.1779,7,0,0,0
0,1405368029,454432,21.6378,8.61999,-38.6794,45.1508,-8.50441,-0.417712,4.09168,9.44677,1.10025,7.52938,-2.8095,68.2125,7,0,0,0
0,1405368030,455436,21.649,8.28161,-38.8032,45.1991,-8.47367,-0.434369,4.07383,9.41211,0.218453,8.63709,-2.44416,68.2205,6,0,0,0
0,1405368031,456443,22.0548,8.24904,-38.5175,45.1449,-8.48661,-0.450893,4.0597,9.41844,1.72899,8.35705,-2.56046,68.243,7,0,0,0
0,1405368032,457450,21.7912,8.2667,-38.6027,45.0928,-8.49377,-0.455582,4.08102,9.43432,2.08562,10.3103,-1.31917,68.2754,6,0,0,0
0,1405368033,458451,21.5066,8.50598,-38.8638,45.2248,-8.48107,-0.434071,4.09461,9.42777,1.30187,8.26634,-2.18485,68.2236,6,0,0,0
0,1405368034,459458,21.1757,8.46845,-39.1476,45.3063,-8.5132,-0.408869,4.09032,9.4537,2.65363,9.24347,-1.43024,68.1817,6,0,0,0
0,1405368035,460459,21.8021,8.38224,-38.538,45.0641,-8.53093,-0.429403,4.11836,9.48272,1.73038,9.67654,-1.83137,68.1846,6,0,0,0
0,1405368036,461461,21.528,8.50881,-38.5305,44.9495,-8.48494,-0.431286,4.09263,9.43026,2.45923,8.68113,-3.34152,68.1609,6,0,0,0
0,1405368037,462469,21.4614,8.48705,-38.9025,45.233,-8.50114,-0.415868,4.07933,9.43839,1.27878,8.07581,-2.16257,68.2759,6,0,0,0
0,1405368038,463476,21.5572,8.29859,-38.75,45.1125,-8.52163,-0.410493,4.09383,9.46288,2.90355,9.91943,-0.9612,68.3227,6,0,0,0
0,1405368039,464480,21.648,8.22825,-38.9022,45.2739,-8.50994,-0.412508,4.12855,9.46753,1.76392,9.15483,-0.798391,68.3926,7,0,0,0
0,1405368040,465483,21.4739,8.07693,-38.8117,45.0857,-8.55504,-0.509525,3.83102,9.38749,1.68032,8.64393,-2.79931,68.3215,5,0,0,0
0,1405368041,466491,22.0096,7.84738,-38.5244,45.057,-8.48649,-0.404173,4.09272,9.43049,0.306452,8.45302,-2.40841,68.2077,6,0,0,0
0,1405368042,467492,21.3802,8.6866,-39.0398,45.3506,-8.53226,-0.416479,4.10302,9.47669,0.534996,8.96936,-2.10688,68.2447,7,0,0,0
0,1405368043,468496,21.5047,8.37143,-38.9978,45.314,-8.49102,-0.483758,4.13192,9.45538,1.29263,9.43236,-1.70855,68.2782,7,0,0,0
0,1405368044,469503,21.3865,8.33295,-38.2711,44.6262,-8.50385,-0.421947,4.13299,9.46441,0.242114,8.96649,-2.18786,68.2869,6,0,0,0
0,1405368045,470505,21.4119,8.49863,-39.0458,45.3351,-8.51165,-0.428008,4.06948,9.44416,1.58305,9.51691,-1.17681,68.3047,6,0,0,0
0,1405368046,471509,21.3298,8.41363,-39.1255,45.3493,-8.50507,-0.401227,4.11418,9.45641,0.883467,8.89554,-2.61217,68.3715,6,0,0,0
0,1405368047,472513,21.3742,8.21655,-39.3023,45.4867,-8.49934,-0.390054,4.08537,9.43828,1.02509,9.39835,-2.11408,68.4446,6,0,0,0
0,1405368048,473514,21.6688,8.287,-38.6316,45.0623,-8.50171,-0.437928,4.10751,9.45212,1.21553,9.82349,-2.368,68.5152,7,0,0,0
0,1405368049,474515,21.93,8.23866,-38.3703,44.9565,-8.52215,-0.423709,4.04833,9.44434,0.151745,9.57883,-3.75955,68.6162,6,0,0,0
0,1405368050,475520,21.6218,8.24253,-38.6346,45.0341,-8.52495,-0.251494,3.96362,9.4047,0.516812,8.95148,-0.749942,68.5235,5,0,0,0
0,1405368051,476525,21.5893,8.17568,-39.0565,45.369,-8.50448,-0.335932,4.10613,9.44983,0.308677,8.97015,-2.48802,68.6649,7,0,0,0
0,1405368052,477534,21.8563,8.17469,-38.6484,45.1466,-8.51906,-0.339453,4.08972,9.45597,1.84317,9.39908,-2.95098,68.7469,7,0,0,0
0,1405368053,478543,21.5536,8.31966,-38.3392,44.7623,-8.46542,-0.353944,4.14975,9.43446,0.0786656,8.3104,-2.21194,68.8968,7,0,0,0
0,1405368054,479549,21.7717,7.73646,-38.7574,45.122,-8.49159,-0.412818,4.14632,9.45883,1.54895,9.49696,-0.963837,68.8538,7,0,0,0
0,1405368055,480555,21.9946,6.10633,-37.8933,44.2374,-8.5154,-0.389956,4.15879,9.4847,1.23915,9.89361,-2.03489,69.02,6,0,0,0
0,1405368056,481560,24.9616,5.25612,-36.658,44.6601,-8.48039,-0.381477,4.0704,9.41439,1.44501,8.8789,-1.52399,69.036,7,0,0,0
0,1405368057,482569,25.1824,13.3622,-37.333,46.9729,-8.48366,-0.360716,4.02469,9.39684,1.9978,9.17147,-1.72535,69.2442,6,0,0,0
0,1405368058,483577,21.9578,7.33042,-38.2659,44.7232,-8.44032,-0.429496,4.15075,9.41552,1.12891,9.25229,-1.76375,69.2718,6,0,0,0
0,1405368059,484580,22.0835,6.95268,-38.6295,45.0362,-8.48843,-0.485458,4.0361,9.41165,0.70201,8.31233,-2.6963,69.385,5,0,0,0
0,1405368060,485582,22.9547,8.67798,-38.1436,45.3559,-8.64479,-0.448147,4.01826,9.54356,2.34237,9.28817,-1.60862,69.4319,6,0,0,0
0,1405368061,486586,21.5257,14.974,-40.4613,48.2151,-8.62152,-0.493822,4.02564,9.52786,-1.30693,8.73061,-0.900396,69.4633,7,0,0,0
0,1405368062,487590,23.0735,13.4953,-39.8485,47.9834,-8.5731,-0.550978,3.94185,9.45197,-3.78423,9.50395,0.33808,69.5632,6,0,0,0
0,1405368063,488598,19.0947,17.2866,-39.9786,47.5576,-8.64046,-0.728616,3.57547,9.37936,-4.48322,8.16961,1.785,69.4998,6,0,0,0
0,1405368064,489608,16.7838,8.00491,-37.0908,41.491,-8.51745,-0.71363,3.79107,9.35032,-7.25298,9.22212,1.49018,68.9931,6,0,0,0
0,1405368065,490615,15.1136,6.75346,-39.6824,42.9968,-8.37381,-0.520073,3.86507,9.23742,-3.47631,8.89329,0.594765,69.0326,5,0,0,0
0,1405368066,491627,14.0369,7.00689,-40.2735,43.2214,-8.43857,-0.668037,3.94129,9.33753,-0.681711,8.69011,0.674983,68.703,7,0,0,0
0,1405368067,492635,13.8582,7.14583,-40.4334,43.3355,-8.48993,-0.671805,3.84995,9.34625,0.705709,9.77272,-2.05226,68.5248,5,0,0,0
0,1405368068,493642,15.247,17.8809,-40.8142,47.0956,-8.49533,-0.594391,3.51786,9.21408,-0.9025,9.40353,-1.48012,68.3044,6,0,0,0
0,1405368069,494651,13.4205,8.46971,-41.2069,44.1571,-8.84617,-0.666702,3.48748,9.53214,-2.12141,8.14065,1.76491,68.0623,6,0,0,0
0,1405368070,495660,13.4633,2.60334,-39.1622,41.4936,-8.51284,-1.02518,3.5965,9.29808,-5.46978,9.83306,2.82785,67.9334,6,0,0,0
0,1405368071,496666,10.03,7.56441,-40.6543,42.5511,-8.53401,-0.806656,3.86395,9.40267,-4.38758,9.49145,1.787,67.8117,7,0,0,0
0,1405368072,497669,9.3077,7.37052,-40.2971,42.0097,-8.54511,-0.614649,3.72286,9.34111,-3.89931,7.81304,-0.114737,67.6265,6,0,0,0
0,1405368073,498675,8.86512,7.35152,-40.5291,42.1336,-8.5199,-0.549775,3.82005,9.35328,-0.821726,7.94178,-3.3908,67.3888,7,0,0,0
0,1405368074,499681,12.28,17.6469,-39.7733,45.212,-8.43533,-0.52434,3.89309,9.30516,2.8916,9.16817,-2.80954,67.3527,6,0,0,0
0,1405368075,500686,7.7088,11.1679,-41.3412,43.5114,-8.46167,-0.711237,3.89911,9.34392,1.31639,9.62214,-1.94249,67.1328,6,0,0,0
0,1405368076,501687,8.33031,13.6853,-41.5212,44.5049,-8.40074,-0.680778,3.93263,9.30062,-0.645096,8.51117,-1.89142,66.9148,6,0,0,0
0,1405368077,502690,12.3928,6.52469,-38.5046,40.9727,-8.63573,-0.774647,4.09926,9.59062,-1.13866,10.2628,0.592473,66.8948,6,0,0,0
0,1405368078,503697,7.84856,9.72431,-38.8918,40.8501,-8.60027,-0.348768,3.58298,9.3233,-11.5624,8.58725,2.80939,66.6251,7,0,0,0
0,1405368079,504703,3.93664,11.7471,-37.9775,39.9473,-8.63259,-0.446435,3.42276,9.29711,-15.7408,10.1265,6.47256,66.5404,8,0,0,0
0,1405368080,505706,2.31178,12.9666,-40.3035,42.401,-8.7474,-0.227398,3.50249,9.4253,-17.4412,9.54173,7.85768,66.4535,6,0,0,0
0,1405368081,506709,-4.15862,9.17811,-36.7278,38.0849,-8.75283,-0.508637,3.29872,9.36762,-13.2668,8.31507,7.26237,66.3198,6,0,0,0
0,1405368082,507710,-7.13607,10.8868,-34.2852,36.6732,-8.74467,-0.595165,3.24037,9.34471,-7.55943,7.38592,4.32613,66.1674,6,0,0,0
0,1405368083,508711,-8.80456,11.6267,-32.6215,35.7332,-8.75074,-0.628601,3.36566,9.39671,-4.9081,7.86294,-0.0370434,66.172,7,0,0,0
0,1405368084,509716,-8.6666,12.289,-31.6716,35.0602,-8.64615,-0.74539,3.47407,9.34776,-1.51439,8.62443,-0.145464,65.8142,7,0,0,0
0,1405368085,510717,-10.9816,12.8958,-32.265,36.4408,-8.57066,-0.629209,3.66583,9.34293,-1.18343,8.32664,-0.326617,65.5405,6,0,0,0
0,1405368086,511718,-10.7405,12.6874,-31.3996,35.5284,-8.72521,-0.737131,3.47725,9.42147,-2.68669,8.46686,-0.382808,65.3332,6,0,0,0
0,1405368087,512720,-10.3161,12.766,-30.2952,34.4556,-8.70621,-0.698263,3.43645,9.38589,0.0853856,8.69773,-1.90803,65.214,6,0,0,0
0,1405368088,513725,-10.7635,12.6415,-30.227,34.4867,-8.66332,-0.592551,3.61062,9.4043,0.543007,7.87373,-2.1931,64.9506,6,0,0,0
0,1405368089,514737,-10.2393,13.1645,-30.2673,34.558,-8.64997,-0.652852,3.58872,9.3876,0.958296,8.76287,-2.33506,64.7964,7,0,0,0
0,1405368090,515746,-10.345,12.7421,-30.4089,34.5555,-8.64217,-0.642827,3.54375,9.36261,1.18063,8.0938,-1.62844,64.6046,6,0,0,0
0,1405368091,516747,-10.5558,13.3587,-30.5654,34.9875,-8.6443,-0.65,3.55284,9.36852,0.932513,8.33722,-1.74782,64.3539,6,0,0,0
0,1405368092,517754,-10.9032,12.0457,-30.8894,34.9018,-8.64623,-0.65778,3.60831,9.39201,3.14022,9.42076,-1.91313,64.1693,6,0,0,0
0,1405368093,518761,-11.5674,9.09854,-30.7777,34.1153,-8.683,-0.672378,3.48643,9.38093,2.45666,9.4013,-1.9803,64.028,7,0,0,0
0,1405368094,519767,-10.043,4.80575,-29.6375,31.6598,-8.70783,-0.701277,3.45636,9.39492,2.27337,8.77664,-3.4538,63.8477,6,0,0,0
0,1405368095,520777,-12.0345,11.1718,-31.7136,35.7127,-8.65385,-0.71204,3.39275,9.32239,-1.08399,8.78114,-2.21315,63.7265,7,0,0,0
0,1405368096,521781,-10.5586,7.28073,-30.1272,32.7436,-8.65043,-0.614841,3.59052,9.38614,0.417519,8.76574,-0.40376,63.5566,6,0,0,0
0,1405368097,522789,-7.83215,13.165,-28.912,32.7195,-8.65854,-0.646508,3.60179,9.40006,3.41872,8.78237,-1.92438,63.3011,6,0,0,0
0,1405368098,523790,-7.71743,20.1686,-30.7322,37.5606,-8.70529,-0.630966,3.53539,9.41697,1.98991,8.47748,-0.746406,63.2398,6,0,0,0
0,1405368099,524791,-9.7676,10.0349,-30.2782,33.3598,-8.56465,-0.657979,3.67068,9.34131,3.97509,7.91507,-2.66706,63.0576,6,0,0,0
0,1405368100,525798,-10.8826,12.1486,-32.4772,36.3426,-8.58405,-0.643634,3.72852,9.38094,2.76305,9.23021,-2.5998,63.1132,6,0,0,0
0,1405368101,526801,-7.74161,17.3894,-31.9447,37.1858,-8.68553,-0.710429,3.56299,9.41478,2.84423,8.87603,-2.73144,63.1526,6,0,0,0
0,1405368102,527813,-9.7553,9.59518,-32.749,35.4927,-8.65744,-0.648789,3.61836,9.40557,3.50248,7.89689,-2.26924,63.0229,5,0,0,0
0,1405368103,528818,-11.847,15.3108,-34.4276,39.4972,-8.62332,-0.629951,3.65511,9.38714,3.85627,8.44522,-2.8877,63.011,6,0,0,0
0,1405368104,529823,-11.8071,10.2523,-33.1746,36.6752,-8.64259,-0.620948,3.60703,9.38566,2.48785,8.22128,-1.82046,62.9498,6,0,0,0
0,1405368105,530824,-11.5861,10.4692,-32.5526,36.1042,-8.67017,-0.671299,3.616,9.41796,3.00188,8.21799,-3.03822,62.9068,5,0,0,0
0,1405368106,531835,-11.1371,14.8995,-32.7522,37.6661,-8.51592,-0.614292,3.73829,9.32057,1.58378,8.13367,-2.62969,62.6914,6,0,0,0
0,1405368107,532838,-10.9779,15.0813,-32.6074,37.566,-8.60604,-0.658819,3.66952,9.37888,3.20733,8.12243,-1.93851,62.6568,5,0,0,0
0,1405368108,533850,-11.2202,15.0596,-32.4613,37.5022,-8.63308,-0.658042,3.5904,9.37305,2.41452,8.00531,-1.99075,62.617,7,0,0,0
0,1405368109,534854,-11.8838,14.9791,-32.633,37.8221,-8.61233,-0.68397,3.59386,9.35713,1.72348,9.01371,-1.50028,62.4001,6,0,0,0
0,1405368110,535857,-10.414,13.9413,-31.6675,36.1336,-8.62761,-0.717627,3.46832,9.3263,1.07077,8.08205,-2.98461,62.4905,6,0,0,0
0,1405368111,536866,-9.30327,23.8636,-32.1635,41.1159,-8.67837,-0.632779,3.37154,9.33176,1.31775,8.34368,-1.69631,62.2843,7,0,0,0
0,1405368112,537870,-7.06924,21.7528,-31.1816,38.6711,-8.76718,-0.645273,3.51487,9.46753,2.21303,8.13698,-2.41248,62.1254,7,0,0,0
0,1405368113,538878,-10.9776,10.2034,-32.1931,35.5108,-8.49043,-0.665773,3.4659,9.19473,1.81869,6.89387,-2.13443,62.0022,6,0,0,0
0,1405368114,539881,-8.16159,13.6519,-33.4024,36.996,-8.44949,-0.57508,3.74649,9.26071,3.57737,7.93724,-0.915859,61.899,7,0,0,0
0,1405368115,540882,-8.90968,12.1932,-33.0875,36.3708,-8.6895,-0.649374,3.6953,9.4649,2.36243,8.81565,-2.77387,61.9064,6,0,0,0
0,1405368116,541893,-6.34851,22.5301,-33.2451,40.6588,-8.71788,-0.677451,3.4932,9.41609,1.54145,8.55488,-1.34361,61.7113,6,0,0,0
0,1405368117,542896,-8.00076,10.9611,-31.8838,34.6516,-8.67893,-0.573449,3.62703,9.4238,-0.422815,8.45853,-2.23705,61.5642,6,0,0,0
0,1405368118,543899,-8.52826,18.7795,-32.5618,38.5445,-8.80619,-0.692992,3.4638,9.48827,0.922544,6.25273,-0.699768,61.4276,7,0,0,0
0,1405368119,544903,-8.33399,15.2125,-30.5907,35.1663,-8.59429,-0.655281,3.79017,9.41576,0.900043,7.58343,0.247512,61.5139,7,0,0,0
0,1405368120,545909,-8.44721,15.1404,-30.1387,34.7696,-8.55032,-0.596266,3.73958,9.35137,1.81717,9.09126,-2.77772,61.4584,6,0,0,0
0,1405368121,546916,-8.79272,13.4692,-30.1891,34.2069,-8.62835,-0.633954,3.61416,9.37616,3.13359,7.5333,-1.78815,61.4574,6,0,0,0
0,1405368122,547920,-8.89358,14.5922,-30.7213,35.1543,-8.62396,-0.644454,3.58901,9.36317,1.41283,6.60949,-1.67254,61.4722,7,0,0,0
0,1405368123,548926,-8.68035,15.2016,-30.2538,34.9533,-8.63541,-0.642169,3.57636,9.36872,1.741,6.06378,-0.498861,61.3239,7,0,0,0
0,1405368124,549928,-8.49965,15.1239,-30.0466,34.6954,-8.63355,-0.634684,3.62113,9.38369,2.16812,8.66067,-2.35748,61.3722,6,0,0,0
0,1405368125,550935,-8.22331,16.1036,-30.1497,35.1562,-8.62607,-0.660013,3.60414,9.372,2.4757,7.6186,-1.87624,61.2173,7,0,0,0
0,1405368126,551952,-8.59976,14.5578,-30.7768,35.1155,-8.62105,-0.619494,3.59009,9.35922,1.05297,8.3659,-0.503692,61.2656,6,0,0,0
0,1405368127,552957,-8.59867,13.4753,-30.5629,34.4907,-8.62421,-0.613215,3.61663,9.37193,2.45122,7.89005,-2.11364,61.3067,7,0,0,0
0,1405368128,553963,-8.29568,14.9088,-30.3522,34.8188,-8.63991,-0.674275,3.59213,9.38116,1.42863,8.57326,-1.16983,61.2743,6,0,0,0
0,1405368129,554970,-8.01467,15.9186,-30.1815,35.0508,-8.63525,-0.656594,3.59737,9.37762,0.421208,7.99896,-1.71527,61.2363,6,0,0,0
0,1405368130,555977,-8.04759,15.2096,-30.1574,34.7212,-8.63246,-0.636749,3.604,9.37623,2.38306,7.28378,-1.76495,61.3271,6,0,0,0
0,1405368131,556982,-8.30828,14.5536,-30.3739,34.6902,-8.63607,-0.645418,3.59872,9.37812,2.41627,8.0781,-1.06148,61.3354,7,0,0,0
0,1405368132,557987,-8.49727,15.1134,-31.4247,35.8905,-8.64203,-0.631236,3.62546,9.39293,0.487502,6.35155,-2.99085,61.2355,7,0,0,0
0,1405368133,558992,-9.03537,15.3546,-30.768,35.5537,-8.62755,-0.630438,3.59312,9.3671,3.19375,8.84828,-2.5219,61.3901,7,0,0,0
0,1405368134,559998,-8.09298,15.9653,-30.3158,35.2056,-8.65347,-0.649095,3.61192,9.39946,1.4944,8.05273,-1.06555,61.4031,6,0,0,0
0,1405368136,561000,-8.04014,14.9678,-30.3341,34.7683,-8.63383,-0.660619,3.58801,9.373,1.6444,7.56706,-2.03798,61.3102,6,0,0,0
0,1405368137,562013,-8.00664,15.3356,-30.3203,34.9085,-8.64766,-0.64706,3.60491,9.39127,0.608467,7.67731,-1.86593,61.3124,7,0,0,0
0,1405368138,563021,-8.78559,14.7649,-30.7117,35.1909,-8.62928,-0.643339,3.57324,9.36197,3.01219,8.10665,-2.94884,61.2361,7,0,0,0
0,1405368139,564028,-8.15502,14.5913,-30.7339,34.9855,-8.62354,-0.660168,3.62532,9.37786,3.03874,7.91376,-1.14077,61.141,6,0,0,0
0,1405368140,565030,-8.20529,14.8822,-30.3308,34.7672,-8.62804,-0.659382,3.61519,9.37803,2.02632,8.56134,-2.29082,61.2832,6,0,0,0
0,1405368141,566035,-8.22339,15.1981,-30.3004,34.8815,-8.64648,-0.653587,3.57592,9.37955,2.75823,7.64918,-1.20752,61.2779,6,0,0,0
0,1405368142,567037,-7.88703,15.4147,-29.9059,34.5569,-8.62691,-0.631183,3.62189,9.37764,0.882287,8.09358,-1.44465,61.3191,7,0,0,0
0,1405368143,568038,-8.18629,15.2142,-30.8945,35.3971,-8.62181,-0.63461,3.60846,9.36799,0.3764,7.50638,-0.65796,61.226,6,0,0,0
0,1405368144,569039,-8.42787,14.4833,-30.9857,35.2265,-8.64437,-0.643534,3.6086,9.38942,2.46055,7.86786,-1.83309,61.3156,7,0,0,0
0,1405368145,570044,-8.40188,14.2975,-30.782,34.9649,-8.64266,-0.621541,3.5785,9.37484,2.42585,7.94027,-0.498094,61.1635,7,0,0,0
0,1405368146,571050,-8.34617,14.9258,-30.117,34.6334,-8.64128,-0.641305,3.61089,9.38731,2.70085,8.82357,-2.27932,61.1454,5,0,0,0
0,1405368147,572055,-7.98646,14.7817,-29.6888,34.1132,-8.61435,-0.636947,3.5973,9.35699,1.75725,7.56298,-1.59608,61.056,7,0,0,0
0,1405368148,573065,-8.06749,15.5612,-30.1674,34.89,-8.62798,-0.654727,3.60345,9.37313,2.83502,7.13937,-2.00861,60.9778,6,0,0,0
0,1405368149,574067,-8.36619,14.078,-30.6222,34.7261,-8.62845,-0.632369,3.61349,9.3759,0.849556,7.72286,-0.971267,61.0259,6,0,0,0
0,1405368150,575073,-8.23186,14.5453,-31.0395,35.253,-8.62892,-0.648667,3.61476,9.37792,1.71608,8.56762,-1.55326,61.016,6,0,0,0
0,1405368151,576075,-8.30179,14.3881,-30.5078,34.737,-8.63954,-0.637364,3.61202,9.38587,1.06291,7.89123,-2.07065,61.0255,6,0,0,0
0,1405368152,577082,-8.06615,16.2787,-30.391,35.4072,-8.62647,-0.650754,3.5978,9.3693,1.12152,8.57264,-1.97153,61.0265,7,0,0,0
0,1405368153,578085,-8.30304,14.6434,-29.7287,34.1638,-8.64685,-0.619036,3.60225,9.38762,1.65916,7.46783,-0.694354,60.9076,6,0,0,0
0,1405368154,579101,-8.87264,15.4653,-30.1627,35.0384,-8.63122,-0.654501,3.61174,9.37928,2.77428,9.22858,-1.1799,60.8714,6,0,0,0
0,1405368155,580110,-8.39168,15.7406,-30.0571,34.9516,-8.62903,-0.613303,3.60232,9.37086,2.34246,6.79155,-2.05617,60.921,5,0,0,0
0,1405368156,581119,-8.13559,15.6842,-30.1207,34.9205,-8.62107,-0.643515,3.62465,9.37417,1.89128,7.72088,-1.61059,60.9357,6,0,0,0
0,1405368157,582128,-8.49637,15.2197,-29.8467,34.5637,-8.63308,-0.650777,3.61804,9.38316,1.88339,7.36018,-1.12365,60.8133,7,0,0,0
0,1405368158,583135,-7.84745,15.6811,-30.2412,34.9572,-8.63043,-0.636544,3.59386,9.37045,1.46959,8.16826,-1.79164,60.8425,6,0,0,0
0,1405368159,584139,-8.46935,15.2775,-29.7424,34.4927,-8.62573,-0.634251,3.598,9.36756,0.363318,7.66376,-0.530344,60.8439,7,0,0,0
0,1405368160,585150,-8.27568,16.2852,-30.3038,35.3838,-8.63699,-0.648132,3.59409,9.37737,3.18831,7.3619,-0.722056,60.7873,7,0,0,0
0,1405368161,586160,-7.54484,16.3408,-30.2988,35.2415,-8.6395,-0.636937,3.60007,9.38122,1.67027,8.82351,-2.75222,60.7025,7,0,0,0
0,1405368162,587182,-7.90585,15.752,-30.0044,34.7979,-8.63275,-0.64327,3.62028,9.38321,1.16955,7.19472,-1.78248,60.633,7,0,0,0
0,1405368163,588186,-8.5485,15.2124,-29.7889,34.5235,-8.61554,-0.630205,3.62801,9.36948,2.07885,7.75656,-2.01997,60.699,7,0,0,0
0,1405368164,589194,-8.25359,15.018,-29.904,34.4661,-8.6315,-0.63773,3.58256,9.36719,2.36997,6.67296,-1.51248,60.6999,6,0,0,0
0,1405368165,590199,-8.2724,15.9632,-30.4676,35.377,-8.63881,-0.650885,3.5957,9.37986,1.78478,7.61936,-1.84535,60.6017,7,0,0,0
0,1405368166,591202,-7.98864,15.565,-29.8345,34.5859,-8.6304,-0.64828,3.58892,9.36933,2.84299,7.68604,-2.71196,60.5093,7,0,0,0
0,1405368167,592210,-8.25963,15.607,-30.1213,34.9155,-8.63224,-0.641154,3.59488,9.37283,2.55143,8.53418,-3.46232,60.6903,5,0,0,0
0,1405368168,593214,-7.83499,16.1773,-30.052,35.0174,-8.63788,-0.658082,3.60303,9.38231,3.04905,7.05823,-2.51778,60.6036,6,0,0,0
0,1405368169,594225,-8.23338,16.125,-29.5787,34.6801,-8.64476,-0.647488,3.63467,9.40011,0.0120901,9.48986,-1.63494,60.5558,6,0,0,0
0,1405368170,595230,-8.76214,15.9035,-30.2855,35.3115,-8.61846,-0.635549,3.59271,9.35891,2.8666,6.92992,-2.90946,60.6352,6,0,0,0
0,1405368171,596240,-8.08638,14.8067,-29.7415,34.1933,-8.64628,-0.58804,3.58205,9.37736,2.29471,7.41137,-1.41418,60.6818,7,0,0,0
0,1405368172,597251,-8.23172,16.3452,-29.6407,34.8353,-8.62598,-0.659591,3.55577,9.3534,2.32542,6.50963,-2.09975,60.681,6,0,0,0
0,1405368173,598260,-7.96238,16.0976,-29.9432,34.916,-8.62729,-0.644879,3.59252,9.36761,2.22964,7.62476,-1.77486,60.5273,6,0,0,0
0,1405368174,599267,-7.84688,16.9821,-29.6517,35.0598,-8.64247,-0.624735,3.60717,9.38586,2.41036,8.15105,-1.97757,60.7194,6,0,0,0
0,1405368175,600270,-8.07556,15.3131,-30.0836,34.7092,-8.63696,-0.636309,3.60139,9.37934,1.58945,7.90894,-1.06832,60.5769,5,0,0,0
0,1405368176,601275,-7.39271,10.0147,-29.0193,31.5763,-8.76094,-0.65635,3.50665,9.45946,0.653379,7.31453,-1.46158,60.5265,7,0,0,0
0,1405368177,602283,-8.28328,22.6064,-30.9375,39.202,-8.70248,-0.59353,3.29206,9.32325,-0.944506,9.12842,0.716594,60.4527,6,0,0,0
0,1405368178,603289,-10.8234,12.5262,-29.2207,33.5843,-8.77097,-0.632402,3.35108,9.41061,-7.43378,8.37309,2.24963,60.4494,6,0,0,0
0,1405368179,604290,-5.7588,20.2996,-25.2968,32.9419,-8.65241,-0.708196,3.32935,9.29787,-12.946,8.3492,4.87532,60.3728,7,0,0,0
0,1405368180,605292,-13.1537,15.3023,-24.5363,31.7681,-8.82082,-0.800197,3.41479,9.49253,-12.6806,8.14775,7.53704,60.4733,6,0,0,0
0,1405368181,606305,-11.4837,19.9924,-20.9813,31.1735,-8.88388,-0.926791,3.71571,9.67413,-12.0993,7.71723,5.91307,60.2971,6,0,0,0
0,1405368182,607313,-10.6858,20.2244,-17.5597,28.8367,-8.64702,-0.746324,3.59852,9.3956,-9.49273,7.28527,5.72897,59.9943,5,0,0,0
0,1405368183,608321,-11.7884,18.2666,-16.1012,27.0534,-8.86853,-0.7141,3.60404,9.59947,1.63543,6.92829,0.559194,60.2434,6,0,0,0
0,1405368184,609327,-14.1451,20.2126,-17.8327,30.4408,-8.55433,-0.307105,3.86354,9.39137,3.74389,6.36584,-3.07091,60.2614,6,0,0,0
0,1405368185,610331,-12.5645,24.474,-18.2125,32.993,-8.7733,-0.532533,3.641,9.51374,3.88195,6.96297,-3.14279,60.0645,6,0,0,0
0,1405368186,611333,-13.8484,13.1683,-18.2683,26.437,-8.63043,-0.44465,3.36272,9.27307,5.41665,7.0304,-1.48889,60.1585,7,0,0,0
0,1405368187,612336,-13.6021,20.1474,-19.5619,31.2026,-8.50028,-0.424724,3.82821,9.33222,4.16408,7.33676,-3.65376,59.8533,7,0,0,0
0,1405368188,613344,-12.7987,20.8541,-19.5523,31.3208,-8.47179,-0.548631,3.78304,9.29428,4.65628,8.40587,-2.10595,59.9203,6,0,0,0
0,1405368189,614350,-13.8068,18.5479,-19.7229,30.3915,-8.4837,-0.528507,3.83675,9.32594,0.798433,8.07041,-0.903688,59.9481,7,0,0,0
0,1405368190,615351,-13.6037,19.9565,-20.709,31.8148,-8.69442,-0.534999,3.5024,9.38861,2.55261,7.90421,-1.85907,60.0111,6,0,0,0
0,1405368191,616356,-13.7975,19.993,-19.5756,31.1977,-8.65663,-0.522933,3.58172,9.38293,2.24741,6.85098,0.0175937,59.8016,7,0,0,0
0,1405368192,617358,-15.8768,12.6848,-19.7483,28.3367,-8.44415,-0.501457,3.92842,9.32671,1.66593,6.11182,-3.48954,59.89,6,0,0,0
0,1405368193,618366,-9.34384,32.899,-19.8691,39.5529,-8.45093,-0.630945,3.94569,9.34798,9.02203,5.61441,-5.49423,59.8488,5,0,0,0
0,1405368194,619376,-12.8452,22.4468,-23.3435,34.8393,-8.41939,-0.833085,3.74047,9.25047,15.2963,7.40931,-8.63074,59.7304,7,0,0,0
0,1405368195,620380,-11.2681,17.9951,-24.8422,32.6792,-8.38863,-0.767682,3.59053,9.15699,19.0978,6.7979,-12.8063,59.803,6,0,0,0
0,1405368196,621381,-10.4974,12.9587,-27.3374,32.0228,-8.7367,-0.490247,3.71612,9.50682,3.54866,6.54476,-0.725507,59.7159,7,0,0,0
0,1405368197,622385,-10.199,20.2285,-26.3365,34.7394,-8.54748,-0.157103,3.94476,9.41516,-13.3207,5.62726,5.03933,59.6894,7,0,0,0
0,1405368198,623386,-11.9028,20.8045,-22.1541,32.639,-8.45709,-0.29361,3.63986,9.21179,-27.0414,5.85048,14.2794,59.5221,6,0,0,0
0,1405368199,624397,-9.33523,27.2986,-14.593,32.3313,-8.64402,-0.217074,3.67935,9.39702,-28.2155,6.52167,15.8834,59.4305,7,0,0,0
0,1405368200,625401,-7.73953,22.6276,-7.8727,25.1772,-8.76532,-0.0973705,3.41611,9.40798,-30.5769,7.12853,16.6893,59.258,5,0,0,0
0,1405368201,626412,-6.76987,27.3337,-6.16265,28.826,-9.18129,-0.169309,3.26443,9.74584,-21.1051,6.57075,11.2205,59.1086,6,0,0,0
0,1405368202,627414,-4.37551,28.1941,-3.17233,28.7074,-9.34681,-0.364351,2.99729,9.82239,-11.3521,6.63288,5.64612,59.0963,5,0,0,0
0,1405368203,628423,-2.58755,28.8838,-1.7623,29.053,-9.09933,-0.60516,2.89288,9.56728,-1.75438,7.22936,0.163368,58.8452,6,0,0,0
0,1405368204,629432,-1.85626,28.5366,-2.23677,28.6842,-9.08407,-0.421299,2.75414,9.50174,0.119495,7.72381,-1.75632,58.6873,6,0,0,0
0,1405368205,630434,-2.88663,28.8297,-3.06533,29.1356,-8.7021,-0.397841,3.39574,9.34964,2.89389,6.79685,-2.06142,58.6238,7,0,0,0
0,1405368206,631445,-1.76617,20.6719,-1.59109,20.8082,-8.78339,-0.35599,3.37303,9.41552,1.50132,8.18875,-0.774227,58.6068,7,0,0,0
0,1405368207,632463,1.60545,41.8207,-2.36967,41.9185,-8.85498,-0.389643,3.30621,9.4601,1.72308,6.63585,-1.7551,58.6564,6,0,0,0
0,1405368208,633468,-2.73169,31.9283,-3.17553,32.2019,-8.96415,-0.393168,3.30805,9.56315,-0.162577,8.54248,-1.60831,58.6163,6,0,0,0
0,1405368209,634469,-2.70061,22.6695,-2.05841,22.9224,-8.77951,-0.408213,3.31594,9.39372,1.60962,7.15895,0.0675155,58.6158,7,0,0,0
0,1405368210,635479,0.949486,33.4858,-1.30636,33.5248,-8.81769,-0.362602,3.46148,9.47971,3.53876,6.75406,-3.79768,58.5749,6,0,0,0
0,1405368211,636482,-0.449535,25.4144,-1.21109,25.4472,-8.73575,-0.452316,3.51517,9.42732,2.49634,7.4095,-2.46043,58.7523,6,0,0,0
0,1405368212,637491,-2.63383,25.6782,-2.4265,25.9267,-8.65626,-0.416431,3.57442,9.37447,2.45302,6.94806,-1.35532,58.6631,6,0,0,0
0,1405368213,638498,-0.436733,35.1518,-2.76575,35.2631,-8.62451,-0.455171,3.57963,9.34896,2.31588,7.25456,-1.01588,58.8413,7,0,0,0
0,1405368214,639507,-2.52256,24.2296,-2.10872,24.4516,-8.70517,-0.459313,3.63573,9.44508,1.83333,7.92297,-2.64424,58.8492,6,0,0,0
0,1405368215,640512,-2.1192,30.6658,-2.39772,30.8323,-8.45608,-0.384451,3.27642,9.07679,3.17903,5.84322,-2.29252,58.9067,6,0,0,0
0,1405368216,641519,-1.91719,23.819,-4.45165,24.3072,-8.16452,-0.409525,3.07842,8.7352,1.81457,5.24777,-0.474907,58.8845,7,0,0,0
0,1405368217,642529,-0.0865851,26.6216,-3.82896,26.8957,-8.59326,-0.568877,3.60218,9.33506,0.891742,7.77666,-1.81071,59.0336,7,0,0,0
0,1405368218,643534,1.79241,28.6752,-0.570968,28.7368,-8.71051,-0.543185,3.47157,9.39254,0.801008,6.34871,-0.907443,58.9836,6,0,0,0
0,1405368219,644541,1.65709,27.2868,0.648308,27.3448,-8.68203,-0.534468,3.54275,9.39225,1.67641,8.17927,-0.673504,59.003,7,0,0,0
0,1405368220,645552,0.502206,25.4738,0.0968829,25.4789,-8.66483,-0.562587,3.49338,9.35946,1.5796,8.37222,-3.25919,59.0542,7,0,0,0
0,1405368221,646557,-2.56448,22.8298,-1.57228,23.0271,-8.79835,-0.444457,3.51348,9.48436,1.71439,7.14465,-2.11378,59.0616,6,0,0,0
0,1405368222,647561,-3.32992,27.7974,-1.77805,28.0525,-8.7637,-0.44759,3.31406,9.38007,3.53055,8.19719,-0.946662,59.153,5,0,0,0
0,1405368223,648562,-2.91518,30.0656,-2.185,30.2856,-8.48385,-0.426689,3.70732,9.26833,3.68615,9.00008,-3.40585,59.1117,5,0,0,0
0,1405368224,649566,-2.79196,27.8785,-1.394,28.0526,-8.49689,-0.549751,3.84381,9.34207,1.75186,6.52987,-2.33996,59.0966,7,0,0,0
0,1405368225,650574,-3.80137,29.3545,-2.1504,29.6777,-8.70652,-0.514804,3.47424,9.38823,-0.236822,6.95751,-3.23863,59.154,6,0,0,0
0,1405368226,651578,-2.9114,29.7615,-2.0384,29.973,-8.69014,-0.511167,3.47889,9.37457,2.38604,7.94638,-1.73532,59.2705,6,0,0,0
0,1405368227,652579,-3.26449,28.844,-2.0635,29.1014,-8.7008,-0.549179,3.45476,9.37768,2.0828,7.18559,-2.22524,59.1928,6,0,0,0
0,1405368228,653588,-3.31591,28.3655,-2.20432,28.6436,-8.71239,-0.483672,3.48303,9.39527,2.59638,7.74606,-1.95493,59.2366,7,0,0,0
0,1405368229,654594,-2.87702,28.2352,-1.91964,28.4463,-8.69758,-0.515623,3.50043,9.38971,2.29641,6.92266,-1.0465,59.2271,6,0,0,0
0,1405368230,655601,-2.85336,29.9561,-2.6871,30.2114,-8.71463,-0.497233,3.48133,9.39743,3.27194,7.95234,-0.951288,59.226,5,0,0,0
0,1405368231,656603,-2.92801,29.3714,-1.81864,29.5729,-8.69794,-0.506185,3.47181,9.37891,1.95053,7.35025,-2.42857,59.2344,6,0,0,0
0,1405368232,657608,-3.50706,28.6389,-2.8861,28.9968,-8.71406,-0.508373,3.48532,9.39898,1.37195,6.24717,-1.86702,59.2914,5,0,0,0
0,1405368233,658611,-3.62552,27.6926,-2.65918,28.0553,-8.70374,-0.493928,3.49284,9.39143,1.04997,6.62467,-1.28383,59.3005,7,0,0,0
0,1405368234,659617,-3.1291,28.8895,-2.5445,29.1697,-8.71081,-0.506637,3.48905,9.39725,0.693946,7.01512,-1.62106,59.3155,7,0,0,0
0,1405368235,660619,-2.8708,28.6597,-2.32937,28.8972,-8.72813,-0.49915,3.46003,9.40219,2.20464,7.16842,-1.88513,59.3896,7,0,0,0
0,1405368236,661625,-2.88802,28.132,-2.00618,28.3509,-8.70247,-0.497698,3.43665,9.3697,0.738247,6.97248,-1.50774,59.4264,6,0,0,0
0,1405368237,662626,-3.21665,28.4617,-2.53952,28.7553,-8.7124,-0.495321,3.45073,9.38397,1.38056,8.92379,-1.11188,59.4683,6,0,0,0
0,1405368238,663634,-3.75651,27.5108,-2.79419,27.9063,-8.71246,-0.508838,3.43425,9.3787,1.44329,8.55187,-0.530891,59.469,6,0,0,0
0,1405368239,664638,-3.30797,28.1977,-2.55891,28.5061,-8.68892,-0.523841,3.46708,9.36976,1.78625,6.90415,-2.50988,59.4531,6,0,0,0
0,1405368240,665644,-3.57622,28.559,-2.13001,28.8607,-8.73401,-0.514376,3.47413,9.41366,1.68395,7.33738,-0.779103,59.4417,5,0,0,0
0,1405368241,666652,-2.8687,28.8917,-2.11843,29.111,-8.71755,-0.485174,3.47194,9.39604,3.74269,7.89441,-1.97142,59.4544,7,0,0,0
0,1405368242,667658,-2.78275,28.8644,-1.77097,29.0522,-8.70543,-0.512919,3.49013,9.39301,1.93035,7.07208,-2.10883,59.5127,6,0,0,0
0,1405368243,668668,-3.41077,27.9556,-2.39615,28.2647,-8.73405,-0.511933,3.46561,9.41043,2.10332,7.33741,-1.02809,59.6016,7,0,0,0
0,1405368244,669670,-3.26706,27.3818,-2.43325,27.6832,-8.70003,-0.516472,3.46162,9.37763,1.10969,7.27092,-1.40979,59.5286,6,0,0,0
0,1405368245,670678,-3.42004,28.3972,-2.54027,28.715,-8.71146,-0.517857,3.48403,9.39661,1.83963,7.58054,-1.28609,59.4833,5,0,0,0
0,1405368246,671684,-2.89578,28.9195,-1.93426,29.1284,-8.70153,-0.51058,3.47123,9.38226,3.0053,7.5685,-1.82871,59.5903,7,0,0,0
0,1405368247,672729,-3.26622,29.8952,-2.16381,30.1508,-8.69775,-0.516471,3.48697,9.38491,0.845662,7.2451,-2.49392,59.5282,4,0,0,0
0,1405368248,673734,-3.19615,28.7217,-2.46917,29.0042,-8.69953,-0.504327,3.47352,9.38091,1.50201,6.74586,-1.95137,59.6167,7,0,0,0
0,1405368249,674735,-3.42875,27.5769,-2.49854,27.9013,-8.70876,-0.513239,3.47225,9.38949,1.85271,7.9036,-3.09741,59.4954,6,0,0,0
0,1405368250,675737,-2.8419,29.738,-2.349,29.9657,-8.70947,-0.513807,3.48333,9.39428,0.599564,7.27196,-1.54614,59.5569,6,0,0,0
0,1405368251,676742,-2.50575,28.4487,-2.25573,28.6478,-8.70528,-0.514433,3.47902,9.38883,1.36805,7.27282,0.137624,59.5587,7,0,0,0
0,1405368252,677749,-2.93069,29.8829,-2.20887,30.1074,-8.70842,-0.504659,3.4739,9.38931,2.69502,7.6267,-2.75742,59.5481,6,0,0,0
0,1405368253,678752,-2.81316,29.2204,-1.71242,29.4054,-8.7065,-0.51039,3.46841,9.38582,2.20979,6.62208,-1.69356,59.6144,7,0,0,0
0,1405368254,679753,-2.61725,28.7764,-1.88442,28.9565,-8.71192,-0.500273,3.48239,9.39547,2.10312,7.20114,-1.76163,59.5417,6,0,0,0
0,1405368255,680760,-2.5749,29.383,-2.23155,29.5799,-8.71502,-0.518783,3.47361,9.3961,0.71441,8.42814,-2.40821,59.5939,7,0,0,0
0,1405368256,681767,-2.64743,28.6615,-2.19973,28.8674,-8.68714,-0.479337,3.49692,9.37681,0.968782,7.62017,-0.893025,59.6893,6,0,0,0
0,1405368257,682775,-2.74437,29.1324,-1.96858,29.3276,-8.73527,-0.495118,3.51492,9.42893,2.52988,7.74427,-0.987699,59.5672,6,0,0,0
0,1405368258,683780,-2.84834,29.2202,-1.57868,29.4011,-8.72217,-0.474857,3.46483,9.39717,0.420502,8.34597,-2.57711,59.6681,7,0,0,0
0,1405368259,684784,-2.99501,29.4362,-2.23894,29.6728,-8.70328,-0.502898,3.48352,9.38802,0.603788,7.82437,-2.31325,59.6346,7,0,0,0
0,1405368260,685790,-2.99091,29.3182,-1.88519,29.5306,-8.70588,-0.50764,3.48694,9.39195,1.94047,8.58178,-2.34491,59.6397,6,0,0,0
0,1405368261,686796,-2.61663,28.4315,-1.8251,28.6099,-8.7141,-0.5217,3.463,9.39149,0.802466,7.29144,-1.96806,59.6645,6,0,0,0
0,1405368262,687803,-2.39893,29.1685,-2.01743,29.3365,-8.70672,-0.511867,3.47809,9.38968,2.83836,7.77134,-1.33971,59.6395,6,0,0,0
0,1405368263,688811,-3.22861,28.5707,-1.57298,28.7956,-8.70612,-0.51104,3.47546,9.38811,1.97815,7.72382,-1.53229,59.5956,7,0,0,0
0,1405368264,689816,-2.68122,28.847,-1.73435,29.0232,-8.71171,-0.509746,3.47159,9.39179,0.519277,7.6522,-1.97965,59.3325,6,0,0,0
0,1405368265,690819,-2.98699,29.6154,-2.64248,29.8828,-8.72235,-0.502467,3.4415,9.3902,1.57594,7.59001,-1.03929,59.2,7,0,0,0
0,1405368266,691835,-2.76698,29.0845,-2.17552,29.2967,-8.71675,-0.513889,3.4864,9.40217,-0.0865236,6.64282,-2.28966,59.199,7,0,0,0
0,1405368267,692839,-2.93327,28.6284,-1.91079,28.8417,-8.70373,-0.513558,3.50123,9.3956,3.03655,7.36197,-0.882466,59.097,6,0,0,0
0,1405368268,693841,-2.88334,28.3089,-1.71913,28.5073,-8.70353,-0.520072,3.47046,9.38435,2.78296,6.38219,-1.38502,58.9154,7,0,0,0
0,1405368269,694851,-2.6957,28.7061,-2.22507,28.9181,-8.69645,-0.509592,3.47041,9.37719,1.6832,7.12395,-2.09726,58.8495,5,0,0,0
0,1405368270,695853,-2.97232,29.45,-2.46028,29.7016,-8.73733,-0.478437,3.47394,9.41478,1.88659,6.98988,-2.25052,58.9426,6,0,0,0
0,1405368271,696860,-2.8487,29.7091,-2.08433,29.918,-8.69559,-0.500757,3.4784,9.37887,2.00463,8.00724,-1.74405,58.9178,7,0,0,0
0,1405368272,697869,6.65072,33.244,-12.8001,36.2387,-8.85527,-0.469434,3.49063,9.52999,2.53014,5.3626,-2.08256,58.9765,6,0,0,0
0,1405368273,698873,6.75057,32.2444,-13.2033,35.4908,-8.58096,-0.56613,3.50915,9.28804,3.62163,14.8313,-3.24051,58.9091,7,0,0,0
0,1405368274,699882,-3.26372,29.6298,-2.38834,29.9045,-8.71397,-0.505091,3.45062,9.38591,2.01316,7.26328,-1.31266,59.0723,7,0,0,0
0,1405368275,700896,-2.73268,28.1746,-1.73697,28.3601,-8.73575,-0.49504,3.48706,9.41902,0.443044,7.87411,-2.39674,59.1596,7,0,0,0
0,1405368276,701905,-3.14401,29.5281,-2.34469,29.7875,-8.70159,-0.490433,3.47359,9.38211,1.37229,6.65803,-1.85647,59.1306,7,0,0,0
0,1405368277,702912,-3.14823,28.8386,-2.09693,29.0857,-8.70412,-0.494244,3.46882,9.38289,1.28874,7.84022,-0.648912,59.2103,6,0,0,0
0,1405368278,703919,-2.72527,29.4286,-1.92498,29.6172,-8.70606,-0.511636,3.48496,9.3916,0.502069,7.25009,-1.65653,59.1923,6,0,0,0
0,1405368279,704921,-3.3484,28.8039,-1.66649,29.0457,-8.71906,-0.495523,3.49094,9.40501,3.02547,6.93075,-1.63513,59.2443,7,0,0,0
0,1405368280,705925,-2.91723,28.5329,-1.92332,28.7461,-8.70022,-0.49431,3.51276,9.39562,2.19872,7.31559,-1.43094,59.3116,7,0,0,0
0,1405368281,706931,-3.157,29.336,-2.20958,29.588,-8.69742,-0.514403,3.5024,9.39024,-0.0688055,7.93297,-1.71917,59.4167,7,0,0,0
0,1405368282,707936,-2.70054,28.921,-2.29723,29.1375,-8.7072,-0.482866,3.48165,9.38991,2.21944,7.46433,-3.29545,59.1939,7,0,0,0
0,1405368283,708941,-3.07535,28.9054,-1.79099,29.1236,-8.70735,-0.486457,3.49311,9.39449,1.74348,8.27657,-1.46709,59.3884,6,0,0,0
0,1405368284,709944,-2.9532,28.6229,-1.43271,28.8104,-8.72192,-0.467328,3.48198,9.4029,2.66982,7.42674,-3.16544,59.2457,6,0,0,0
0,1405368285,710952,-2.96712,28.7243,-1.64961,28.9242,-8.70593,-0.511602,3.47681,9.38846,2.00142,7.31392,-1.9068,59.3778,6,0,0,0
0,1405368286,711958,-2.89485,29.5477,-2.30424,29.7785,-8.70709,-0.500947,3.4587,9.38227,1.2779,6.96765,-2.26311,59.4251,6,0,0,0
0,1405368287,712963,-2.60423,29.4281,-1.89385,29.6038,-8.72438,-0.492433,3.4846,9.40743,3.64854,8.22373,-2.33609,59.3329,6,0,0,0
0,1405368288,713969,-3.05467,29.9196,-2.03391,30.1438,-8.71116,-0.497898,3.4904,9.39761,2.02035,6.82593,-1.47376,59.2997,7,0,0,0
0,1405368289,714978,-3.05909,28.5495,-1.32831,28.7436,-8.7049,-0.507095,3.49146,9.39269,0.0395495,7.86856,-1.35794,59.4246,7,0,0,0
0,1405368290,715989,-3.14747,28.7587,-1.81044,28.987,-8.70576,-0.488939,3.48404,9.38977,2.47355,6.24912,-0.978211,59.2921,7,0,0,0
0,1405368291,716993,-2.70078,29.2802,-2.44733,29.5062,-8.7023,-0.512449,3.48622,9.38863,3.24148,7.64327,-3.01325,59.3908,7,0,0,0
0,1405368292,717999,-2.71373,29.2749,-2.012,29.4692,-8.69639,-0.495539,3.46546,9.37455,2.00061,8.14726,-2.09182,59.4372,7,0,0,0
0,1405368294,719002,-2.89024,28.9459,-1.90974,29.1525,-8.71236,-0.509739,3.47037,9.39194,3.83757,7.28437,-2.09661,59.4589,6,0,0,0
0,1405368295,720011,-3.07094,29.3252,-1.86994,29.5448,-8.70713,-0.486081,3.47597,9.3879,1.37674,7.33209,-0.396377,59.4826,6,0,0,0
0,1405368296,721014,-2.96824,30.1515,-1.80761,30.3511,-8.71603,-0.509752,3.50882,9.40962,1.2617,7.67456,-1.43186,59.5766,6,0,0,0
0,1405368297,722020,-3.22915,29.1041,-1.53566,29.3229,-8.68708,-0.486714,3.51193,9.38274,1.37064,9.9034,-1.98634,59.594,6,0,0,0
0,1405368298,723026,-2.77223,30.0778,-1.76601,30.2568,-8.69437,-0.522256,3.48683,9.38204,3.10482,8.07729,-1.61769,59.5826,6,0,0,0
0,1405368299,724034,-2.70411,29.3375,-1.69115,29.5104,-8.65911,-0.487884,3.4387,9.32968,1.44038,7.214,-2.30101,59.6332,5,0,0,0
0,1405368300,725036,-2.73962,29.1261,-1.73751,29.3063,-8.70238,-0.536235,3.47879,9.38728,1.66506,7.20775,-1.46871,59.6639,6,0,0,0
0,1405368301,726044,-2.52711,29.3834,-1.71264,29.5416,-8.71008,-0.515692,3.49796,9.40038,2.44783,7.50374,-1.07178,59.674,5,0,0,0
0,1405368302,727046,-2.87515,29.9492,-1.89644,30.1466,-8.70233,-0.520252,3.44668,9.37448,1.28573,7.69131,-2.38597,59.6615,6,0,0,0
0,1405368303,728047,-2.76869,29.5771,-2.17019,29.7856,-8.69601,-0.501937,3.48252,9.38086,0.989784,7.00979,-2.15721,59.6498,7,0,0,0
0,1405368304,729054,-3.10581,28.7355,-2.09147,28.9785,-8.69093,-0.4852,3.50705,9.38441,0.429625,7.82335,-2.91613,59.6359,6,0,0,0
0,1405368305,730061,-2.78223,29.3482,-1.82935,29.5365,-8.70323,-0.417095,3.49318,9.38735,0.787902,8.26177,-1.67503,59.6699,8,0,0,0
0,1405368306,731063,-2.95661,28.5416,-1.46455,28.7317,-8.69081,-0.524657,3.45448,9.36691,1.91052,7.66984,-1.93309,59.762,6,0,0,0
0,1405368307,732071,-3.10332,28.4198,-1.5846,28.6326,-8.70206,-0.515097,3.49122,9.39041,3.25269,6.37138,-0.917745,59.788,6,0,0,0
0,1405368308,733082,-2.54743,28.6986,-1.9977,28.8806,-8.69262,-0.486491,3.47508,9.37414,2.65456,7.26972,-1.81999,59.7929,7,0,0,0
0,1405368309,734091,-2.5306,29.045,-1.59003,29.1984,-8.71628,-0.506157,3.49235,9.40352,3.76117,6.86103,-1.4697,59.7924,5,0,0,0
0,1405368310,735100,-3.16032,29.8924,-2.37553,30.1527,-8.71809,-0.501067,3.47186,9.39734,1.21162,7.62796,-2.42986,59.7222,6,0,0,0
0,1405368311,736102,-2.46169,29.0603,-1.82246,29.2212,-8.70353,-0.490331,3.48345,9.38756,1.50912,7.38766,-2.59721,59.7587,7,0,0,0
0,1405368312,737110,-3.05305,29.3306,-1.73448,29.5401,-8.70629,-0.494022,3.497,9.39535,0.832159,7.12907,-1.46553,59.7698,7,0,0,0
0,1405368313,738113,-2.35941,29.3654,-1.78114,29.5138,-8.70438,-0.518063,3.48311,9.38971,1.26032,6.72996,-2.2516,59.7866,6,0,0,0
0,1405368314,739115,-3.04,29.1173,-1.91063,29.3378,-8.70362,-0.502878,3.48041,9.38718,2.01859,6.46146,-1.74031,59.8078,6,0,0,0
0,1405368315,740120,-2.71967,29.5725,-1.90515,29.7583,-8.69956,-0.505946,3.48434,9.38503,1.741,7.29949,-1.56499,59.7869,7,0,0,0
0,1405368316,741130,-2.40495,29.4576,-1.96383,29.6208,-8.6772,-0.530238,3.48781,9.36695,2.39093,8.80513,-1.07478,59.8169,7,0,0,0
0,1405368317,742134,-2.63314,29.0149,-1.86032,29.1935,-8.72487,-0.48256,3.50918,9.4165,2.04975,7.97202,-0.935998,59.8542,6,0,0,0
0,1405368318,743137,-2.89912,29.5315,-1.77211,29.7263,-8.71117,-0.512798,3.49892,9.40159,1.26259,6.90871,-2.39489,59.8368,7,0,0,0
0,1405368319,744148,-2.75196,29.9898,-1.96735,30.18,-8.71278,-0.467,3.47536,9.39195,2.19009,7.94845,-2.27365,59.8421,7,0,0,0
0,1405368320,745152,-3.1173,29.1977,-1.98686,29.4308,-8.712,-0.505554,3.4729,9.39231,2.20898,8.78581,-1.26885,59.7772,6,0,0,0
0,1405368321,746159,-2.82462,29.3282,-1.42033,29.4981,-8.7184,-0.514932,3.47299,9.3988,0.53224,7.69248,-2.83275,59.8119,6,0,0,0
0,1405368322,747164,-2.38866,29.9047,-1.64012,30.0448,-8.69647,-0.496258,3.48091,9.38038,1.68562,7.5553,-0.369138,59.7548,7,0,0,0
0,1405368323,748168,-3.25882,29.3751,-1.58744,29.5979,-8.69264,-0.463971,3.49045,9.37872,0.645517,7.74391,-1.09252,59.77,8,0,0,0
0,1405368324,749172,-2.58338,29.4044,-1.93603,29.5811,-8.68591,-0.504624,3.51553,9.38395,1.6275,7.5791,-2.27563,59.816,6,0,0,0
0,1405368325,750181,-2.94486,29.5614,-1.28132,29.7354,-8.71064,-0.50256,3.49422,9.3988,2.25337,7.5704,-0.895672,59.9105,7,0,0,0
0,1405368326,751187,-2.33202,25.2989,-0.685887,25.4154,-8.67413,-0.519718,3.44998,9.34949,1.11314,8.51767,-1.36615,59.8409,6,0,0,0
0,1405368327,752200,-3.45698,32.3331,-2.39297,32.6053,-8.55111,-0.482076,3.70538,9.33187,0.67152,6.36334,-1.19589,59.897,7,0,0,0
0,1405368328,753203,0.265955,36.3115,-0.657069,36.3184,-8.5564,-0.457704,3.85723,9.39679,1.74587,7.86199,-3.05798,59.9016,6,0,0,0
0,1405368329,754205,-0.597323,25.5413,0.0201775,25.5483,-8.54874,-0.471445,3.71757,9.334,1.35839,7.09673,-1.46358,59.8589,6,0,0,0
0,1405368330,755209,-2.55742,29.3851,-1.51795,29.5353,-8.68147,-0.629283,3.44881,9.3626,1.46559,6.53308,-1.01871,59.8641,6,0,0,0
0,1405368331,756218,-2.46738,30.8593,-1.34654,30.987,-8.78519,-0.496186,3.27047,9.38732,1.09555,7.51546,-2.09463,59.9284,7,0,0,0
0,1405368332,757225,-1.6788,31.7334,-1.78104,31.8277,-8.61188,-0.506499,3.64901,9.36677,1.41183,7.96063,-1.2093,59.9147,6,0,0,0
0,1405368333,758228,-1.65402,32.6089,-1.83228,32.7021,-8.67621,-0.531656,3.55038,9.3896,1.2773,7.51594,-1.89249,59.8724,7,0,0,0
0,1405368334,759234,-1.47571,32.032,-2.09514,32.1343,-8.68445,-0.525645,3.51745,9.38448,2.33358,7.45757,-0.962478,59.8968,6,0,0,0
0,1405368335,760242,-1.56887,32.5874,-2.46131,32.7179,-8.67628,-0.528077,3.52981,9.3817,1.52068,6.86946,-2.65102,59.9816,6,0,0,0
0,1405368336,761245,-1.73962,31.661,-1.88347,31.7647,-8.67198,-0.52779,3.52623,9.37636,1.00469,7.34971,-2.35704,59.8741,5,0,0,0
0,1405368337,762250,-1.71392,31.4457,-1.92716,31.5513,-8.66081,-0.52075,3.53631,9.36943,1.53924,7.15656,-1.91067,59.9301,6,0,0,0
0,1405368338,763260,-2.03242,32.4321,-2.42473,32.5861,-8.69004,-0.530442,3.51505,9.38902,2.13657,7.82282,-1.8339,59.9885,6,0,0,0
0,1405368339,764267,-2.04178,33.0907,-1.99664,33.2137,-8.67783,-0.544411,3.54285,9.38898,2.24988,8.45895,-1.85635,59.9974,7,0,0,0
0,1405368340,765276,-2.09304,32.5919,-1.94495,32.7169,-8.69789,-0.515337,3.53217,9.40187,1.97063,7.61354,-0.969383,59.9096,6,0,0,0
0,1405368341,766286,-1.6856,31.5701,-2.07533,31.6832,-8.67103,-0.512431,3.53957,9.37965,2.82049,8.19431,-1.51885,60.0077,7,0,0,0
0,1405368342,767292,-2.23246,32.442,-1.57172,32.5567,-8.70097,-0.491802,3.53024,9.40273,1.05728,7.38741,-2.69097,60.0774,7,0,0,0
0,1405368343,768293,-1.8682,32.211,-2.11354,32.3343,-8.69646,-0.504915,3.52708,9.39806,1.99317,6.99741,-1.79084,60.0756,6,0,0,0
0,1405368344,769296,-1.81144,32.7512,-1.72787,32.8467,-8.69375,-0.510435,3.52119,9.39364,2.67818,7.29597,-1.68982,60.0824,7,0,0,0
0,1405368345,770305,-1.81297,32.7577,-2.16176,32.8789,-8.66369,-0.52121,3.51809,9.36526,2.84137,8.02,-2.19818,60.0646,5,0,0,0
0,1405368346,771306,-2.00053,32.4212,-1.79058,32.5322,-8.66885,-0.520012,3.52354,9.37201,2.83232,7.6103,-2.0976,60.0976,5,0,0,0
0,1405368347,772309,-1.81707,33.0107,-1.65858,33.1022,-8.68249,-0.518099,3.50951,9.37927,1.53232,7.07368,-1.86717,60.143,6,0,0,0
0,1405368348,773312,-1.83157,32.3072,-1.9708,32.419,-8.67383,-0.51991,3.52095,9.37564,1.50241,6.48506,-1.64869,60.0764,4,0,0,0
0,1405368349,774315,-1.74713,32.4782,-1.68375,32.5687,-8.6946,-0.545424,3.52622,9.39828,2.13558,7.75006,-0.993339,60.1256,6,0,0,0
0,1405368350,775330,-2.03121,32.4056,-2.03623,32.533,-8.69678,-0.496796,3.51518,9.39347,0.995875,7.29568,-2.76973,60.1499,6,0,0,0
0,1405368351,776338,-1.73274,32.0324,-2.01727,32.1426,-8.66966,-0.541965,3.54363,9.38158,3.09019,7.04541,-1.67329,60.1304,6,0,0,0
0,1405368352,777348,-1.96893,32.8155,-1.76909,32.9221,-8.69191,-0.516232,3.50575,9.38648,-0.453087,7.42456,-2.17885,60.0983,7,0,0,0
0,1405368353,778355,-1.51992,32.3206,-2.05426,32.4215,-8.6917,-0.526847,3.50503,9.38661,2.57919,6.71853,-2.40283,60.212,5,0,0,0
0,1405368354,779363,-1.61015,32.2542,-1.6862,32.3384,-8.67663,-0.515768,3.48596,9.36492,1.93728,8.66907,-2.4506,60.1834,6,0,0,0
0,1405368355,780372,-1.24352,32.0956,-1.79955,32.17,-8.69124,-0.510016,3.5143,9.38872,1.70626,7.57291,-1.46824,60.1759,6,0,0,0
0,1405368356,781376,-1.81522,32.0196,-2.01962,32.1345,-8.6744,-0.496973,3.5167,9.37334,0.283807,6.54494,-1.65763,60.1028,7,0,0,0
0,1405368357,782384,-1.39672,32.4039,-2.18428,32.5074,-8.67515,-0.517335,3.53743,9.38292,1.57791,7.22397,-0.631682,60.2554,7,0,0,0
0,1405368358,783385,-1.85645,32.0508,-1.64465,32.1467,-8.67798,-0.518506,3.5131,9.37647,0.700569,8.21072,-1.47104,60.2213,6,0,0,0
0,1405368359,784391,-1.80626,32.1142,-1.76962,32.2136,-8.6986,-0.500423,3.51173,9.39406,2.15091,8.07758,-0.992653,60.1854,7,0,0,0
0,1405368360,785398,-1.57742,31.9597,-1.65182,32.0412,-8.66248,-0.539111,3.51829,9.36523,1.41206,7.46163,-1.44833,60.1723,6,0,0,0
0,1405368361,786408,-1.56662,32.1677,-1.92698,32.2635,-8.67466,-0.546301,3.53062,9.38155,1.0346,7.08908,-2.73506,60.0678,7,0,0,0
0,1405368362,787412,-1.71799,32.3996,-2.1081,32.5135,-8.69577,-0.510071,3.52909,9.39846,0.203818,7.5419,-2.48575,60.0995,6,0,0,0
0,1405368363,788423,-1.72843,32.9683,-1.56813,33.0508,-8.67154,-0.542818,3.50603,9.36923,0.482313,8.36719,-2.2676,60.197,6,0,0,0
0,1405368364,789428,-2.20158,32.3775,-1.99394,32.5135,-8.6939,-0.517535,3.50465,9.38799,1.83939,7.40585,-2.26444,60.1866,6,0,0,0
0,1405368365,790444,-1.766,31.5842,-1.56781,31.6723,-8.69814,-0.528854,3.52002,9.3983,1.28011,6.3476,-1.11622,60.2019,7,0,0,0
0,1405368366,791445,-1.80842,32.1752,-2.21824,32.3022,-8.68449,-0.52449,3.49551,9.37625,3.48974,8.12481,-1.79602,60.218,6,0,0,0
0,1405368367,792456,-1.65692,32.3841,-2.24119,32.5038,-8.67603,-0.519273,3.48811,9.36536,0.135636,8.39156,-2.81816,60.1451,7,0,0,0
0,1405368368,793461,-1.60318,32.4689,-1.81677,32.5592,-8.68122,-0.515709,3.5192,9.38159,1.32827,7.77677,-2.3899,60.2584,6,0,0,0
0,1405368369,794466,-1.76478,32.656,-2.26488,32.782,-8.68169,-0.506123,3.50586,9.37651,0.944514,7.57638,-2.68215,60.3328,7,0,0,0
0,1405368370,795478,-1.77333,31.9941,-1.69671,32.0881,-8.64164,-0.62909,3.55311,9.36474,0.745134,6.61951,-0.799273,60.2382,7,0,0,0
0,1405368371,796483,-1.81301,32.4027,-1.82536,32.5046,-8.69045,-0.583004,3.5182,9.3937,1.13132,9.00178,-1.15245,60.251,7,0,0,0
0,1405368372,797493,-1.65203,32.5038,-1.88067,32.6001,-8.68071,-0.516492,3.50781,9.3769,2.87678,8.00542,-1.71514,60.2384,6,0,0,0
0,1405368373,798499,-2.09237,32.4766,-1.96124,32.603,-8.6796,-0.512476,3.51468,9.37823,0.748109,6.50228,-1.28235,60.2227,6,0,0,0
0,1405368374,799504,-1.64603,32.6031,-1.89603,32.6996,-8.71217,-0.533229,3.4915,9.4009,0.610098,6.86934,-1.23924,60.2426,7,0,0,0
0,1405368375,800509,-1.42916,32.6688,-1.93128,32.757,-8.67909,-0.494672,3.5315,9.38311,1.33061,8.27449,-2.09311,60.213,6,0,0,0
0,1405368376,801515,-1.94253,31.5256,-1.97398,31.647,-8.66627,-0.506242,3.50059,9.36027,0.702993,7.22609,-0.514853,60.2634,6,0,0,0
0,1405368377,802523,-1.94223,31.7168,-1.94016,31.8354,-8.70078,-0.530348,3.50888,9.39665,3.66523,6.98447,-2.62651,60.2607,6,0,0,0
0,1405368378,803527,-1.94602,31.0164,-1.85034,31.1324,-8.68423,-0.500134,3.51402,9.38159,1.2085,7.5289,-2.23956,60.2578,6,0,0,0
0,1405368379,804534,-1.58274,32.2338,-2.30979,32.3552,-8.69516,-0.597319,3.50854,9.39535,2.40463,7.5272,-2.16836,60.1906,6,0,0,0
0,1405368380,805541,-1.64811,32.4636,-2.10635,32.5736,-8.67618,-0.506381,3.51322,9.37418,3.21609,5.89036,-1.44689,60.1474,7,0,0,0
0,1405368381,806550,-2.18273,33.3466,-2.5977,33.5188,-8.68973,-0.548403,3.47729,9.3757,1.18792,7.17316,-1.9297,60.234,6,0,0,0
0,1405368382,807558,-2.0208,32.7614,-1.96096,32.8822,-8.71056,-0.513427,3.50474,9.40322,1.46947,7.67805,-2.23471,60.193,7,0,0,0
0,1405368383,808568,-1.6938,31.6513,-1.74908,31.7448,-8.66208,-0.485316,3.50559,9.35716,1.50798,6.62153,-1.28446,60.0286,6,0,0,0
0,1405368384,809574,-2.285,32.1869,-1.96986,32.328,-8.69111,-0.50023,3.52631,9.39257,3.14717,8.17284,-2.18045,60.1348,6,0,0,0
0,1405368385,810576,-1.84414,32.0614,-2.21382,32.1907,-8.68018,-0.496088,3.52058,9.38009,1.37115,7.67099,-2.29083,60.0711,6,0,0,0
0,1405368386,811579,-1.60498,31.714,-1.77804,31.8043,-8.70324,-0.501302,3.51527,9.39972,1.57795,7.50798,-1.46262,60.1366,5,0,0,0
0,1405368387,812585,-1.81293,31.8903,-1.69318,31.9867,-8.69068,-0.532074,3.50838,9.38721,0.787876,8.28438,-2.47258,59.9572,7,0,0,0
0,1405368388,813591,-1.32872,32.1451,-2.03941,32.2371,-8.7001,-0.523646,3.56239,9.41576,2.49871,7.80909,-2.31575,60.0452,6,0,0,0
0,1405368389,814592,-1.5629,32.3858,-1.58221,32.4621,-8.6914,-0.494052,3.52319,9.39134,1.60673,7.85275,-1.87282,59.97,6,0,0,0
0,1405368390,815601,-1.6702,32.953,-1.85476,33.0474,-8.67868,-0.517556,3.51593,9.37812,3.31183,7.82252,-2.34789,59.9785,7,0,0,0
0,1405368391,816608,-1.42007,32.2425,-2.22908,32.3506,-8.67924,-0.507321,3.53035,9.38349,2.78452,8.09257,-2.71488,60.0938,6,0,0,0
0,1405368392,817617,-1.79963,32.9609,-1.92418,33.066,-8.68178,-0.5139,3.51827,9.38166,1.29113,7.42714,-2.32908,60.1016,6,0,0,0
0,1405368393,818623,-1.99784,32.5098,-2.25867,32.6494,-8.70927,-0.536222,3.5251,9.41091,0.292181,7.85467,-1.76899,60.0627,5,0,0,0
0,1405368394,819624,-1.251,32.3175,-2.07005,32.4079,-8.68593,-0.517727,3.53117,9.39056,1.46367,8.22244,-1.91052,60.061,6,0,0,0
0,1405368395,820633,-1.83702,32.5634,-2.08821,32.682,-8.68481,-0.49276,3.52549,9.38605,1.68642,6.77146,-1.61606,60.1469,6,0,0,0
0,1405368396,821642,-2.13576,31.6367,-2.37561,31.7975,-8.68288,-0.520207,3.5279,9.38665,1.51004,8.99914,-2.00768,60.0049,6,0,0,0
0,1405368397,822644,-1.71534,32.1699,-1.88927,32.271,-8.69651,-0.497148,3.53463,9.40053,1.62369,7.46751,-0.847702,60.0862,6,0,0,0
0,1405368398,823647,-1.20133,32.2476,-1.87827,32.3246,-8.66953,-0.513231,3.54316,9.37967,1.66889,7.49045,-2.42103,60.1412,6,0,0,0
0,1405368399,824648,-1.38778,32.4404,-1.96526,32.5294,-8.67759,-0.463998,3.54676,9.38591,1.90345,7.63721,-1.55185,60.1624,7,0,0,0
0,1405368400,825649,-1.37702,32.864,-1.98883,32.9529,-8.70412,-0.486538,3.5199,9.4015,3.79756,7.15518,-0.956226,60.2192,6,0,0,0
0,1405368401,826658,-1.45644,31.3937,-1.93533,31.487,-8.6936,-0.49493,3.5357,9.39813,1.05793,8.57864,-1.69901,60.1762,7,0,0,0
0,1405368402,827662,-1.88055,31.1785,-1.90307,31.2931,-8.70908,-0.495917,3.50196,9.39988,0.975697,7.20016,-1.70027,60.2438,6,0,0,0
0,1405368403,828672,-1.87533,32.5661,-2.38656,32.7072,-8.68101,-0.493428,3.52506,9.3824,1.51573,8.69793,-2.11879,60.2629,6,0,0,0
0,1405368404,829677,-1.40592,32.7852,-2.3742,32.9011,-8.66712,-0.511279,3.51514,9.36678,2.093,7.13107,-1.74867,60.1616,7,0,0,0
0,1405368405,830685,-1.08752,32.0568,-2.24904,32.154,-8.67829,-0.502014,3.53419,9.38377,1.71717,7.19021,-2.71923,60.4177,7,0,0,0
0,1405368406,831688,-1.49338,32.5422,-1.89285,32.6314,-8.67484,-0.486482,3.49335,9.36445,2.43245,8.53484,-1.34478,60.3561,7,0,0,0
0,1405368407,832696,-1.79764,32.5783,-2.13236,32.6975,-8.67716,-0.516549,3.5451,9.38764,1.82475,7.82456,-1.64397,60.3094,7,0,0,0
0,1405368408,833701,-1.44596,32.2734,-2.01107,32.3683,-8.68747,-0.504171,3.51567,9.38543,1.0899,8.05336,-2.68036,60.348,5,0,0,0
0,1405368409,834711,-1.50269,32.5125,-2.35461,32.6323,-8.68793,-0.535018,3.52247,9.39011,2.93721,7.38719,-1.45399,60.2809,7,0,0,0
0,1405368410,835719,-1.9973,31.8962,-2.01946,32.0225,-8.70149,-0.505558,3.49439,9.39054,0.254819,6.83407,-1.24983,60.3807,6,0,0,0
0,1405368411,836727,-1.67468,32.9518,-2.07581,33.0596,-8.66771,-0.511711,3.50883,9.36499,1.53929,7.24432,-2.09578,60.3856,7,0,0,0
0,1405368412,837729,-1.98589,32.3872,-1.88896,32.5029,-8.6828,-0.522655,3.52068,9.384,2.27423,8.31035,-1.91431,60.3497,7,0,0,0
0,1405368413,838742,-1.8346,32.858,-2.08329,32.975,-8.69236,-0.50044,3.53038,9.39527,1.5592,9.06962,-1.99759,60.3955,7,0,0,0
0,1405368414,839744,-1.40862,32.2706,-2.22324,32.3777,-8.68425,-0.498321,3.52742,9.38654,0.290562,7.0482,-1.47535,60.4175,6,0,0,0
0,1405368415,840750,-1.75596,32.1839,-2.20507,32.3071,-8.68106,-0.533915,3.51389,9.38047,1.36606,6.86821,-0.779328,60.274,7,0,0,0
0,1405368416,841757,-1.07082,32.3414,-2.19834,32.4337,-8.68305,-0.51106,3.51616,9.3819,2.18706,7.16508,-1.20186,60.3236,6,0,0,0
0,1405368417,842767,-1.55836,31.9233,-2.04988,32.027,-8.66686,-0.521326,3.53736,9.37546,2.42671,7.71146,-3.04344,60.4032,6,0,0,0
0,1405368418,843776,-1.44943,32.1966,-1.96946,32.2893,-8.67139,-0.531485,3.53301,9.37857,2.6788,8.13194,-2.17048,60.362,6,0,0,0
0,1405368419,844780,-1.70153,32.1517,-1.97025,32.2569,-8.70817,-0.518464,3.527,9.40961,2.26681,7.54172,-2.42443,60.403,7,0,0,0
0,1405368420,845789,-2.35997,31.5889,-1.95515,31.7372,-8.68768,-0.491239,3.51008,9.38284,1.71144,7.28516,-0.684633,60.4338,6,0,0,0
0,1405368421,846791,-1.66214,32.6843,-2.01322,32.7884,-8.67834,-0.49754,3.51539,9.37652,2.86454,8.16947,-1.91964,60.3999,8,0,0,0
0,1405368422,847793,-1.978,32.0121,-1.84134,32.126,-8.68246,-0.425337,3.5409,9.38637,1.53177,7.98809,-1.80752,60.4708,7,0,0,0
0,1405368423,848795,-2.43663,31.4217,-1.61405,31.5573,-8.67625,-0.51095,3.51485,9.37511,1.5441,8.22861,-0.456541,60.5243,7,0,0,0
0,1405368424,849802,-1.84764,32.5689,-1.9921,32.682,-8.69115,-0.504707,3.51151,9.38731,1.1214,7.33722,-2.24023,60.3831,6,0,0,0
0,1405368425,850807,-1.48259,32.4176,-2.18179,32.5248,-8.67266,-0.504186,3.49513,9.36403,1.58192,7.50605,-2.07078,60.539,6,0,0,0
0,1405368426,851809,-1.16588,32.0895,-2.12608,32.181,-8.70315,-0.525203,3.50916,9.39866,1.47362,8.61549,-1.05365,60.5114,7,0,0,0
0,1405368427,852817,-1.91627,32.1412,-2.03942,32.2628,-8.69089,-0.514902,3.51819,9.39012,1.072,7.26841,-2.60687,60.5251,6,0,0,0
0,1405368428,853830,-2.11762,31.9091,-1.88663,32.0349,-8.6816,-0.521229,3.49564,9.37344,2.25021,8.00365,-2.22068,60.5151,6,0,0,0
0,1405368429,854838,-1.97087,32.1015,-2.02875,32.2259,-8.69514,-0.521265,3.55777,9.4093,1.71991,8.40715,-0.586102,60.54,6,0,0,0
0,1405368430,855849,-1.64056,32.937,-1.94172,33.0349,-8.69549,-0.530567,3.50278,9.38949,0.718594,8.50446,-1.61259,60.4927,6,0,0,0
0,1405368431,856854,-1.34434,32.0415,-1.97521,32.1305,-8.66434,-0.527592,3.54668,9.377,3.6772,8.2262,-2.05492,60.594,7,0,0,0
0,1405368432,857865,-1.56502,32.4219,-2.01225,32.522,-8.70194,-0.507743,3.48755,9.38853,1.32331,7.67327,-2.26803,60.5002,6,0,0,0
0,1405368433,858867,-1.70028,32.2326,-1.94772,32.3361,-8.68634,-0.52472,3.52353,9.38845,3.15492,6.87077,-2.27185,60.5632,6,0,0,0
0,1405368434,859868,-1.74416,32.1946,-1.73803,32.2887,-8.67023,-0.514407,3.51204,9.36867,1.62726,8.22331,-1.90171,60.476,7,0,0,0
0,1405368435,860877,-1.76003,32.7503,-2.0946,32.8644,-8.66006,-0.583669,3.50173,9.35945,1.8553,8.0025,-1.249,60.3412,6,0,0,0
0,1405368436,861880,-1.84241,32.8716,-2.1359,32.9924,-8.68912,-0.511392,3.50169,9.38212,2.01025,7.21091,-1.63694,60.3348,7,0,0,0
0,1405368437,862888,-1.9039,32.6961,-2.18586,32.8243,-8.71113,-0.509706,3.53365,9.41436,0.870815,7.81236,-1.67676,60.2368,6,0,0,0
0,1405368438,863893,-1.57662,32.7632,-2.04631,32.8648,-8.70399,-0.513156,3.50034,9.39548,1.7515,8.3245,-1.37658,60.0687,6,0,0,0
0,1405368439,864898,-1.40733,31.2521,-1.54367,31.3218,-8.6956,-0.504431,3.58754,9.4201,0.121094,7.44755,-2.36974,59.9219,7,0,0,0
0,1405368440,865904,-1.49331,18.3969,-0.00547365,18.4574,-8.50802,-0.482394,3.88344,9.36484,1.60689,4.89349,-1.82414,59.8635,6,0,0,0
0,1405368441,866913,7.90606,40.0606,-0.146038,40.8335,-8.57606,-0.12694,4.04195,9.48169,-5.93394,8.01733,2.28978,59.7353,6,0,0,0
0,1405368442,867920,5.06605,27.562,0.147711,28.0241,-8.76746,-0.334365,3.96447,9.62794,-17.877,9.73306,7.39647,59.7797,6,0,0,0
0,1405368443,868922,10.3123,37.1265,1.75884,38.5722,-8.28204,0.111372,3.96305,9.18207,-25.1783,6.60159,14.0147,59.7284,5,0,0,0
0,1405368444,869928,19.971,34.6005,3.41942,40.0965,-8.25958,0.211686,3.66824,9.03999,-30.8963,5.40129,14.2861,59.7509,6,0,0,0
0,1405368445,870931,25.783,32.3348,0.409178,41.3579,-8.51022,0.0211863,3.43842,9.17862,-31.0295,9.30474,13.4614,59.6344,6,0,0,0
0,1405368446,871932,31.5887,32.3732,-3.78283,45.3892,-8.63136,0.0937458,3.38699,9.27259,-28.3607,7.90264,14.4988,59.699,7,0,0,0
0,1405368447,872947,33.2931,24.0149,-10.0093,42.2532,-9.0554,-0.156642,3.48224,9.70313,-25.7153,8.51291,15.6493,59.6882,6,0,0,0
0,1405368448,873952,34.9509,25.8456,-16.0956,46.3533,-8.21814,-0.597802,4.15386,9.22766,-20.4222,7.28718,9.83536,59.7943,7,0,0,0
0,1405368449,874957,36.2194,24.2243,-18.9925,47.5329,-8.26681,-0.635728,4.08568,9.24321,-9.38126,7.32493,1.15811,59.8146,6,0,0,0
0,1405368450,875967,36.0658,24.5069,-20.1688,48.0428,-8.68681,-0.741661,3.90213,9.55183,-2.96109,10.6763,1.72886,59.7224,6,0,0,0
0,1405368451,876970,36.0207,16.0023,-19.4824,43.9673,-8.5688,-0.791399,3.54783,9.30794,-1.47419,5.96937,-2.59585,59.8632,7,0,0,0
0,1405368452,877971,36.4514,19.8267,-18.8287,45.5667,-8.53864,-0.748899,3.5362,9.27221,6.13301,6.68399,-2.26695,59.8587,6,0,0,0
0,1405368453,878979,34.5524,20.7692,-18.9152,44.5311,-8.80022,-0.822516,3.41153,9.47412,8.93395,6.74801,-5.72883,59.9467,6,0,0,0
0,1405368454,879985,34.713,20.9896,-17.9557,44.3617,-8.64478,-0.544843,3.5255,9.35191,3.35713,9.59472,-1.11697,59.9958,7,0,0,0
0,1405368455,880990,34.9447,21.9558,-18.1411,45.0809,-8.68931,-0.54317,3.77128,9.48797,2.25208,7.55908,-2.67628,60.4271,6,0,0,0
0,1405368456,881991,35.1692,22.2421,-16.9609,44.9361,-8.84144,-0.5561,3.77995,9.63163,9.38575,8.90741,-5.431,60.9579,7,0,0,0
0,1405368458,883000,33.4855,22.4563,-15.8313,43.3151,-8.5526,-0.718993,3.37156,9.22124,7.80839,8.17589,-5.72697,60.6626,7,0,0,0
0,1405368459,884008,33.312,23.585,-14.5784,43.3414,-8.78943,-0.734319,3.3611,9.43877,6.06309,7.93212,-3.83734,60.692,6,0,0,0
0,1405368460,885019,33.8637,29.9423,-14.2856,47.4064,-8.5252,-0.677789,3.83049,9.37076,7.05748,7.71603,-3.8136,60.5269,4,0,0,0
0,1405368461,886021,34.0685,29.805,-12.4628,46.9502,-8.55544,-0.696564,3.7681,9.3744,8.0988,7.54987,-5.0653,60.4559,6,0,0,0
0,1405368462,887024,31.8527,25.3105,-11.9431,42.4011,-8.7307,-0.745862,3.70542,9.51376,7.64384,7.87315,-5.06337,60.4494,6,0,0,0
0,1405368463,888026,31.3327,24.2687,-10.8596,41.093,-8.68156,-0.758579,3.49247,9.38841,8.1733,7.50367,-4.63437,60.2491,7,0,0,0
0,1405368464,889035,30.9126,23.2734,-9.76578,39.9075,-8.69492,-0.645919,3.64001,9.4482,1.56143,8.19328,-3.15043,60.4353,7,0,0,0
0,1405368465,890043,33.0501,26.6016,-9.28941,43.431,-8.68966,-0.630703,3.66595,9.45236,1.58917,7.68322,-1.9631,60.3971,6,0,0,0
0,1405368466,891052,31.7124,28.2924,-9.72191,43.5965,-8.65,-0.604632,3.65119,9.40847,4.24464,9.01696,-1.41735,60.5509,6,0,0,0
0,1405368467,892064,31.9114,21.5463,-8.67473,39.4694,-8.56212,-0.634295,3.66237,9.33409,2.36141,7.27074,-1.891,60.5303,7,0,0,0
0,1405368468,893072,32.1891,30.0978,-9.80215,45.1453,-8.37781,-0.659673,3.5298,9.11495,2.64845,7.29554,-2.383,60.4183,6,0,0,0
0,1405368469,894078,33.225,24.9441,-8.5956,42.4263,-8.42236,-0.753385,3.43427,9.12677,1.9326,7.72305,-2.05528,60.4518,7,0,0,0
0,1405368470,895085,30.6832,26.5096,-9.52622,41.6529,-8.47224,-0.618431,3.72257,9.27463,2.66767,6.35877,-1.95892,60.385,6,0,0,0
0,1405368471,896090,32.4629,23.3894,-8.02613,40.8083,-8.54576,-0.735959,3.65527,9.32377,1.93763,7.25396,-1.5833,60.2498,7,0,0,0
0,1405368472,897093,33.1462,29.3679,-7.80812,44.9679,-8.60786,-0.757602,3.71254,9.4049,3.46922,7.85378,-2.20679,60.2186,6,0,0,0
0,1405368473,898095,32.4203,28.8228,-8.5223,44.2093,-8.72252,-0.793286,3.47459,9.42255,2.29346,7.03132,-1.26494,60.1046,6,0,0,0
0,1405368474,899097,31.1222,30.9271,-9.28501,44.8474,-8.51089,-0.7872,3.64632,9.2925,5.62895,7.04678,-2.63762,60.0793,6,0,0,0
0,1405368475,900107,32.1491,28.0025,-7.77877,43.3384,-8.73009,-0.456648,3.99829,9.61298,2.51996,6.35916,-2.33191,60.0591,7,0,0,0
0,1405368476,901110,32.0785,23.0201,-7.14526,40.1249,-8.70403,-0.831518,3.49325,9.41565,0.34196,8.83976,-2.85422,59.9647,6,0,0,0
0,1405368477,902122,30.1711,26.8666,-9.28237,41.4521,-8.69498,-0.595754,3.67831,9.45979,2.0417,7.67427,-2.66177,59.9583,7,0,0,0
0,1405368478,903128,32.0795,24.047,-7.68687,40.8221,-8.72306,-0.528831,3.65251,9.47166,-0.154933,7.29062,-1.18966,60.1751,6,0,0,0
0,1405368479,904131,31.6965,28.4067,-8.16767,43.3395,-8.80219,-0.740392,3.65718,9.56042,0.283899,8.21384,0.163548,60.1255,6,0,0,0
0,1405368480,905139,31.7289,23.9211,-8.62754,40.6617,-8.68104,-0.656288,3.55333,9.40305,0.968019,6.25157,-0.68054,60.1273,6,0,0,0
0,1405368481,906146,31.3432,27.656,-9.77355,42.9275,-8.77367,-0.777012,3.589,9.51115,0.87799,7.80335,-0.17912,60.2172,7,0,0,0
0,1405368482,907151,31.4414,26.5326,-9.72887,42.2752,-8.52571,-0.727516,3.47726,9.23625,3.55853,7.5453,-2.74329,60.2825,7,0,0,0
0,1405368483,908152,31.1753,25.6217,-10.3192,41.6516,-8.63633,-0.679728,3.47417,9.33371,0.584886,7.31236,-3.4255,60.311,7,0,0,0
0,1405368484,909160,32.1329,24.7875,-9.15122,41.6016,-8.60488,-0.695452,3.66139,9.37728,1.5487,8.20668,-2.1713,60.2988,7,0,0,0
0,1405368485,910165,31.4281,25.6221,-9.76154,41.7074,-8.68471,-0.657764,3.46508,9.37356,2.42474,7.19605,-1.65118,60.1339,7,0,0,0
0,1405368486,911172,30.6896,25.4703,-10.403,41.2166,-8.70762,-0.711289,3.47869,9.40372,1.76883,6.76747,-1.68095,60.1824,7,0,0,0
0,1405368487,912177,30.9767,25.0955,-9.93391,41.0856,-8.71786,-0.674824,3.46847,9.40674,3.25758,7.70654,-2.93429,60.2471,6,0,0,0
0,1405368488,913184,30.8185,25.7017,-10.0275,41.3631,-8.7414,-0.724999,3.42373,9.41592,0.890122,7.46178,-1.05754,60.1535,6,0,0,0
0,1405368489,914193,30.7897,25.8253,-10.1851,41.4571,-8.5938,-0.728505,3.62845,9.3568,1.94613,7.43028,-2.10497,60.0632,7,0,0,0
0,1405368490,915201,30.4591,26.1135,-9.92396,41.3299,-8.61969,-0.6833,3.61756,9.37298,2.4584,8.42563,-0.907287,59.9822,6,0,0,0
0,1405368491,916205,32.4807,24.0695,-9.08677,41.4355,-8.55309,-0.831915,3.58565,9.31152,2.21443,6.46386,-2.37251,59.8977,6,0,0,0
0,1405368492,917207,29.5055,27.811,-10.4331,41.8673,-8.40865,-0.750957,3.89285,9.29643,1.73296,8.01576,-2.53555,59.7824,4,0,0,0
0,1405368493,918211,32.2001,30.7841,-9.99382,45.655,-8.64033,-0.605282,3.94417,9.51725,1.94706,8.32052,-1.47653,59.6603,6,0,0,0
0,1405368494,919223,31.9237,27.8804,-9.2932,43.3913,-8.70602,-0.595229,3.49111,9.39877,1.64544,6.79093,-2.62889,59.8004,6,0,0,0
0,1405368495,920233,30.6026,25.845,-9.44506,41.1545,-8.67295,-0.670223,3.44559,9.35636,1.58789,8.40454,-2.17814,59.9461,6,0,0,0
0,1405368496,921246,31.1125,25.658,-9.80125,41.5016,-8.83165,-0.659839,3.42863,9.49679,1.22098,8.93974,-1.59932,59.8276,7,0,0,0
0,1405368497,922250,31.2019,25.562,-9.95873,41.547,-8.70144,-0.637955,3.43127,9.37527,1.93446,8.3558,-0.629651,59.8697,6,0,0,0
0,1405368498,923259,31.2903,25.1377,-9.80001,41.3162,-8.70036,-0.661068,3.36204,9.35075,1.27143,7.01083,-2.06501,59.9464,6,0,0,0
0,1405368499,924275,30.8125,25.4159,-9.8669,41.1428,-8.61173,-0.641692,3.62321,9.3649,1.89966,7.16446,-2.19508,59.9757,7,0,0,0
0,1405368500,925283,30.6405,26.728,-10.1246,41.9015,-8.64718,-0.631018,3.60416,9.38945,1.5447,7.93675,-2.19892,59.9407,6,0,0,0
0,1405368501,926286,31.166,26.4863,-9.76295,42.0494,-8.64329,-0.657812,3.56106,9.37125,2.91433,7.12476,-1.10314,59.8694,7,0,0,0
0,1405368502,927291,31.0045,26.5509,-10.3453,42.11,-8.62833,-0.643075,3.56711,9.35874,1.8628,8.09253,-1.56085,59.9949,7,0,0,0
0,1405368503,928299,31.0253,26.485,-9.69986,41.9299,-8.63116,-0.635684,3.59633,9.37201,2.48712,8.48809,-2.7634,59.9755,7,0,0,0
0,1405368504,929315,31.2945,26.5103,-9.92328,42.1973,-8.64472,-0.620562,3.59835,9.38426,1.37537,7.06584,-1.5704,59.9864,7,0,0,0
0,1405368505,930446,31.1399,26.4192,-9.84432,42.0069,-8.64904,-0.622714,3.57271,9.37859,1.30846,7.73168,-0.972436,59.9678,3,0,0,0
0,1405368506,931448,31.0232,26.5798,-10.0626,42.0735,-8.63799,-0.627681,3.5776,9.37059,1.66717,6.81861,-1.44456,59.8414,6,0,0,0
0,1405368507,932449,31.3164,26.2857,-9.88231,42.0632,-8.64957,-0.51805,3.617,9.38968,3.7572,7.76639,-2.93667,59.9542,6,0,0,0
0,1405368508,933456,30.9195,26.2254,-9.8918,41.7328,-8.648,-0.647134,3.61995,9.39738,1.7232,8.22357,-1.09662,59.9259,7,0,0,0
0,1405368509,934458,30.8528,25.9163,-9.78511,41.4644,-8.64944,-0.657735,3.61737,9.39845,2.4132,7.22763,-1.84053,59.9393,6,0,0,0
0,1405368510,935465,31.4061,26.5683,-10.4738,42.449,-8.62689,-0.642027,3.62512,9.37961,2.84821,7.59111,-2.12851,60.0842,6,0,0,0
0,1405368511,936468,31.0323,26.4729,-9.57257,41.8981,-8.64287,-0.653802,3.6494,9.40451,2.55813,7.36381,-0.881308,60.1432,6,0,0,0
0,1405368512,937473,31.2342,26.3437,-10.1782,42.1089,-8.64447,-0.615116,3.60973,9.38805,1.2433,6.22765,-2.48863,60.1437,6,0,0,0
0,1405368513,938482,30.9249,26.052,-10.0154,41.6577,-8.64128,-0.648958,3.61994,9.39132,0.438275,8.29113,-2.26306,60.1613,6,0,0,0
0,1405368514,939493,30.9651,26.4376,-9.90901,41.9043,-8.64629,-0.657536,3.60637,9.3913,2.10304,8.27829,-1.9128,60.2343,6,0,0,0
0,1405368515,940495,31.2011,26.2996,-10.1016,42.0383,-8.62938,-0.612262,3.60574,9.37243,0.137822,8.03906,-2.22262,60.1293,7,0,0,0
