0,1405701836,utime,,bx(uT),by(uT),bz(uT),,B(uT),ax,,,,ay,,az,,,,,A,,,,,gx,,,gy,,,,gz,,,T(C),rate,,track,tilt,roll
0,1405701836,mins,,-1000,-1000,-1000,,,,,0,,,,-2000,-2000,-2000,,0,,,-2000,,-2000,-2000,-2000,,0,,0,,-180,-180
0,1405701836,maxs,,,1000,,1000,,1000,,,,1000,,,2000,,2000,,2000,2000,,2000,,,2000,,2000,,2000,,37000,360,180,180
0,1405701836,attr,,,,,F,,,,,F,,,,,F,,,,,,F,,,,,,F,,,,,F,,,,F,,,,,F,,,,,F,,,,,,F,,,,,F,,,,,F,,,,,I,F,F,F
0,1405701837,2308,-0.88685,3.11927,-3.79205,4.98959,-1.4649,-0.0725853,0.534492,1.56106,-0.115942,0.417391,-0.057971,4.85111,0,0,0,0
0,1405701838,3312,-4.55337,18.9362,-23.286,30.357,-8.76082,-0.428436,3.23711,9.34957,1.80468,5.09411,-0.172508,48.6825,11,0,0,0
0,1405701839,4313,-4.86125,18.5441,-23.1108,30.027,-8.779,-0.400401,3.22411,9.36088,0.914633,4.51035,-2.63018,48.7144,11,0,0,0
0,1405701840,5317,-4.70398,18.809,-23.0971,30.1559,-8.78669,-0.444108,3.20204,9.36249,1.77166,5.79595,-1.67809,48.7934,4,0,0,0
0,1405701841,6320,-5.14678,18.4802,-23.0892,30.0187,-8.79668,-0.427,3.18043,9.36371,1.89649,4.61741,-2.06396,48.8208,10,0,0,0
0,1405701842,7324,-5.41937,18.8803,-23.7151,30.7935,-8.79176,-0.413062,3.23179,9.37603,2.42819,4.23481,-1.21743,48.8279,11,0,0,0
0,1405701843,8845,-4.91211,19.1448,-23.8247,30.956,-8.77839,-0.412981,3.18128,9.34619,1.99647,4.27573,-2.63934,48.7795,3,0,0,0
0,1405701844,9852,-7.72828,18.989,-25.3272,32.5849,-8.77858,-0.418111,3.19538,9.3514,1.28426,5.08103,0.195975,48.9101,6,0,0,0
0,1405701845,10858,-7.90898,18.9656,-25.1965,32.5133,-8.77369,-0.42849,3.20111,9.34924,1.49773,4.06451,-1.34978,48.7895,7,0,0,0
0,1405701846,11861,-8.01436,18.7483,-25.0831,32.3248,-8.77523,-0.407005,3.19753,9.3485,2.22108,4.97125,-1.16846,48.8167,5,0,0,0
0,1405701847,12868,-8.03074,19.0839,-24.819,32.3214,-8.78057,-0.392414,3.23738,9.3666,1.18252,5.89224,-1.38446,48.8448,7,0,0,0
0,1405701848,13869,-8.02859,18.932,-25.346,32.6389,-8.77772,-0.413026,3.21991,9.35879,3.94939,5.27395,0.384357,48.8993,6,0,0,0
0,1405701849,14875,-8.09662,18.81,-25.3188,32.564,-8.79561,-0.415649,3.18783,9.36471,3.15468,4.33658,-1.63821,48.8378,6,0,0,0
0,1405701850,15876,-8.55428,18.9306,-25.3111,32.7444,-8.76503,-0.423612,3.20934,9.34372,3.37649,6.18084,-1.59047,48.8826,7,0,0,0
0,1405701851,16882,-8.07831,18.9338,-25.1785,32.5223,-8.78284,-0.442664,3.17966,9.35118,1.47125,5.36769,-0.925618,48.9266,6,0,0,0
0,1405701852,17892,-8.27541,18.6705,-25.1415,32.3908,-8.80675,-0.423596,3.19606,9.37834,-0.103566,5.3502,-1.54994,48.8846,6,0,0,0
0,1405701853,18897,-8.33982,19.0161,-24.9095,32.4291,-8.79632,-0.411346,3.20329,9.37046,0.341448,4.74908,-1.32207,48.9647,7,0,0,0
0,1405701854,19907,-8.4323,19.0266,-25.175,32.6633,-8.77326,-0.431853,3.20715,9.35106,2.77391,5.1957,-1.40509,49.0009,7,0,0,0
0,1405701855,20910,-8.24903,18.8732,-25.4846,32.7675,-8.78419,-0.437575,3.19945,9.35895,1.55744,4.59891,-1.94452,48.9174,7,0,0,0
0,1405701856,21917,-8.35068,18.7316,-25.4028,32.6483,-8.78558,-0.437921,3.19198,9.35772,0.23727,4.88187,-0.337869,48.8354,7,0,0,0
0,1405701857,22918,-8.13242,18.9155,-25.3757,32.6781,-8.78362,-0.416753,3.22448,9.36605,1.91591,4.49539,-0.774534,48.9064,7,0,0,0
0,1405701858,23924,-8.60366,18.4221,-25.346,32.4933,-8.7822,-0.430216,3.20503,9.35865,2.1366,5.63212,-3.09301,48.929,7,0,0,0
0,1405701859,24928,-8.46113,18.8146,-25.2748,32.6251,-8.77778,-0.429538,3.22468,9.36123,2.60621,4.80657,-2.23803,48.9495,6,0,0,0
0,1405701860,25934,-8.19618,18.6662,-25.39,32.5616,-8.78823,-0.439103,3.19791,9.36228,2.10421,5.35762,-1.2156,48.8366,7,0,0,0
0,1405701861,26944,-8.1818,18.8722,-25.3631,32.6556,-8.80124,-0.411501,3.21036,9.3775,1.73645,5.81642,-1.30556,48.8555,5,0,0,0
0,1405701862,27946,-8.77617,18.5443,-25.4487,32.6887,-8.771,-0.40547,3.18671,9.34077,2.05139,4.5795,-1.64448,48.9071,6,0,0,0
0,1405701864,29946,-8.83158,18.3923,-25.2971,32.4995,-8.78486,-0.43727,3.19209,9.35705,2.05019,5.14728,-2.59593,48.8319,2,0,0,0
0,1405701865,30950,-8.38427,18.9239,-25.3973,32.7633,-8.78813,-0.43331,3.19704,9.36162,0.954107,5.16104,-1.22657,48.9268,7,0,0,0
0,1405701866,31954,-8.27659,19.0379,-25.4921,32.8754,-8.79926,-0.428088,3.21127,9.3767,-0.725136,4.37543,-0.528287,48.8304,5,0,0,0
0,1405701867,32958,-8.86442,18.2064,-25.5066,32.5674,-8.79246,-0.428135,3.1935,9.36425,2.92346,4.99784,-0.629313,48.828,6,0,0,0
0,1405701868,33965,-8.68451,18.2978,-24.8505,32.0589,-8.78575,-0.432091,3.20082,9.36063,1.11508,5.62007,-2.12801,48.9961,5,0,0,0
0,1405701869,34973,-8.38824,18.7395,-25.404,32.6633,-8.77338,-0.430293,3.17721,9.34088,1.61291,4.6759,-1.26185,48.9939,6,0,0,0
0,1405701870,35976,-8.35371,18.5841,-25.5494,32.6792,-8.78528,-0.403631,3.19767,9.35783,2.1194,5.53992,-1.42204,48.9824,7,0,0,0
0,1405701871,36984,-8.46683,18.8582,-25.1695,32.5703,-8.77827,-0.433687,3.19599,9.35203,2.50681,4.65644,-2.55671,48.891,7,0,0,0
0,1405701872,37992,-8.41148,18.9085,-25.4388,32.7935,-8.78727,-0.436427,3.2253,9.37065,1.27213,4.62072,-0.6475,48.8959,6,0,0,0
0,1405701874,39417,-8.60241,18.5137,-25.6444,32.7779,-8.78741,-0.425012,3.21809,9.36778,2.77275,4.829,-1.37673,48.951,2,0,0,0
0,1405701875,40421,-8.73213,18.4518,-25.1146,32.3645,-8.7892,-0.437088,3.20955,9.36708,3.10883,5.05653,-0.747434,49.0355,7,0,0,0
0,1405701876,41427,-8.25406,18.8162,-25.2757,32.5736,-8.79887,-0.423247,3.19632,9.371,1.56329,5.79062,-0.767904,48.8667,7,0,0,0
0,1405701877,42437,-8.60848,18.5812,-25.4828,32.6916,-8.79691,-0.419753,3.20376,9.37155,1.33871,5.42996,-0.930927,48.8858,6,0,0,0
0,1405701878,43448,-8.33978,18.7813,-25.4714,32.7274,-8.78565,-0.407646,3.20136,9.35962,0.693573,5.31828,-2.32557,49.044,6,0,0,0
0,1405701879,44454,-8.37057,18.881,-25.5584,32.8601,-8.77615,-0.430352,3.20686,9.35361,1.83219,5.51127,-0.773698,48.9561,6,0,0,0
0,1405701880,45458,-8.45311,18.623,-25.1296,32.4001,-8.77931,-0.428536,3.20578,9.35612,2.22787,4.40461,-1.54583,48.9456,6,0,0,0
0,1405701881,46462,-8.2916,18.7009,-25.0986,32.3792,-8.78669,-0.427746,3.2301,9.37136,1.01491,4.5803,-1.91207,48.9766,7,0,0,0
0,1405701882,47466,-8.32313,18.8788,-25.5848,32.8674,-8.78273,-0.436465,3.20311,9.35878,0.453976,4.31103,-0.308292,48.93,7,0,0,0
0,1405701883,48469,-8.07835,19.091,-25.2388,32.6607,-8.78424,-0.424056,3.19269,9.35607,1.17544,5.34864,-1.21368,49.006,7,0,0,0
0,1405701884,49471,-8.23003,18.9369,-25.2479,32.6159,-8.78943,-0.402922,3.18284,9.35665,3.40278,4.64497,-1.30066,48.9965,7,0,0,0
0,1405701885,50476,-8.48906,18.5636,-25.432,32.6107,-8.78858,-0.424266,3.21184,9.3667,2.18549,4.67156,-1.27999,49.0069,4,0,0,0
0,1405701886,51484,-8.10873,18.956,-25.6977,32.9462,-8.77388,-0.421914,3.21579,9.35415,1.83437,5.03001,-1.27393,48.9206,7,0,0,0
0,1405701887,52492,-8.10837,18.9893,-25.4025,32.7357,-8.7996,-0.442016,3.20806,9.37657,2.82015,4.34581,-0.983392,48.9703,7,0,0,0
0,1405701888,53498,-8.04887,18.9579,-25.2949,32.6193,-8.78402,-0.438415,3.20906,9.36212,2.68048,5.60121,-1.92623,48.9648,6,0,0,0
0,1405701889,54500,-8.20333,18.942,-25.2508,32.6144,-8.78114,-0.412446,3.20653,9.35737,0.481042,5.51658,0.273213,49.0369,6,0,0,0
0,1405701890,55509,-8.33839,18.8584,-25.3379,32.6677,-8.79091,-0.42639,3.16766,9.35393,2.12838,3.62962,-1.02491,49.0017,5,0,0,0
0,1405701891,56511,-8.36044,18.7849,-25.5312,32.7813,-8.77688,-0.437139,3.179,9.34509,2.59326,4.97006,-1.46571,48.9504,4,0,0,0
0,1405701892,57515,-8.33832,18.6247,-25.2201,32.4417,-8.78187,-0.4308,3.2243,9.36498,1.1442,5.18447,-1.52124,49.0307,6,0,0,0
0,1405701893,58517,-8.26379,18.8386,-25.3021,32.6095,-8.77005,-0.431415,3.2093,9.34877,0.72582,5.39289,-0.188127,48.9657,6,0,0,0
0,1405701895,60171,-8.63284,18.5329,-25.1906,32.4432,-8.78407,-0.432098,3.19609,9.35743,1.60621,4.4803,-1.94675,49.0309,3,0,0,0
0,1405701896,61177,-8.19138,18.6848,-25.1013,32.3465,-8.77627,-0.454497,3.19793,9.3518,1.36576,5.1767,0.111757,49.036,6,0,0,0
0,1405701897,62180,-8.38214,19.0564,-25.5889,32.9878,-8.78236,-0.43653,3.23391,9.36902,2.35786,5.52642,-2.05355,48.9026,6,0,0,0
0,1405701898,63183,-8.21149,18.7591,-25.1471,32.4301,-8.78799,-0.414706,3.20755,9.36425,2.92788,4.90888,-1.22228,48.86,6,0,0,0
0,1405701900,65245,-8.40422,18.8581,-25.0021,32.4248,-8.7736,-0.438047,3.22359,9.35733,2.22865,6.39646,-0.627458,48.9968,2,0,0,0
0,1405701901,66252,-8.75305,18.4576,-25.1565,32.406,-8.79382,-0.43353,3.19401,9.36594,2.8345,5.02093,-1.99673,48.9967,6,0,0,0
0,1405701902,67256,-8.25464,18.7928,-25.3063,32.5841,-8.79455,-0.408628,3.22575,9.37639,3.7846,4.67348,-1.92133,48.9413,6,0,0,0
0,1405701903,68262,-8.34225,18.7096,-25.4355,32.6589,-8.7886,-0.437739,3.20246,9.36413,2.60384,4.46149,-0.611986,48.8452,5,0,0,0
0,1405701904,69626,-8.21815,18.8275,-25.405,32.6715,-8.78865,-0.438193,3.23682,9.376,0.96646,5.28571,-1.90761,48.9015,4,0,0,0
0,1405701905,70632,-8.61357,18.5978,-25.5333,32.7418,-8.79164,-0.42885,3.20126,9.36616,0.724438,6.12106,-1.93748,48.8526,6,0,0,0
0,1405701906,71635,-8.5082,18.4766,-25.4938,32.6145,-8.79314,-0.423084,3.23193,9.37783,1.07805,4.60403,-2.19783,48.8539,7,0,0,0
0,1405701907,72642,-8.41738,18.7474,-25.4246,32.6914,-8.78232,-0.441119,3.19296,9.35514,0.269646,5.09594,-2.58479,48.8427,6,0,0,0
0,1405701908,73651,-8.1013,18.8302,-25.294,32.5576,-8.78506,-0.45099,3.20478,9.36222,1.08634,4.65772,-0.810776,48.8498,7,0,0,0
0,1405701909,74654,-8.23608,18.9023,-25.5015,32.7942,-8.76407,-0.429849,3.2241,9.34818,1.14715,4.96477,-0.515317,48.8148,6,0,0,0
0,1405701910,75662,-8.24911,19.0935,-25.3587,32.7974,-8.79079,-0.435201,3.17436,9.35649,1.86236,4.85062,-1.59779,48.8227,6,0,0,0
0,1405701911,76669,-8.27187,18.7493,-25.0929,32.3977,-8.79757,-0.483207,3.20361,9.37517,1.55927,4.99509,-1.67834,48.9494,7,0,0,0
0,1405701912,77670,-8.35432,19.0739,-25.0357,32.5637,-8.78804,-0.449696,3.21813,9.36954,3.05388,4.84765,-1.7917,48.7351,7,0,0,0
0,1405701913,78679,-7.91356,19.004,-25.0082,32.3912,-8.77921,-0.449476,3.21288,9.35945,0.66587,4.40381,-1.4949,48.839,6,0,0,0
0,1405701914,79685,-8.37245,18.653,-25.3516,32.5689,-8.77868,-0.440546,3.186,9.34932,2.47557,6.00558,-1.87148,48.6799,7,0,0,0
0,1405701915,80691,-8.27996,18.7905,-25.1595,32.4752,-8.77906,-0.427279,3.20163,9.3544,0.387612,4.9839,-1.48154,48.7485,5,0,0,0
0,1405701916,81701,-8.19499,18.7065,-25.4512,32.6321,-8.79132,-0.416432,3.21222,9.36905,2.83547,4.64696,-1.70219,48.7745,7,0,0,0
0,1405701917,82706,-8.49779,18.7728,-25.1784,32.5359,-8.78982,-0.445841,3.18434,9.35947,0.783993,5.14854,-0.214564,48.7118,5,0,0,0
0,1405701918,83710,-8.21457,18.975,-25.3796,32.7361,-8.7957,-0.424666,3.21219,9.37351,2.38449,4.61785,-2.2977,48.6924,7,0,0,0
0,1405701919,84714,-8.31215,18.87,-25.341,32.6701,-8.78633,-0.422421,3.20374,9.36173,2.35243,5.1412,-1.54517,48.6515,6,0,0,0
0,1405701920,85721,-8.34361,18.6107,-25.0367,32.2926,-8.78738,-0.428876,3.19382,9.35962,1.91152,5.56265,-0.988999,48.7911,6,0,0,0
0,1405701921,86725,-8.20808,18.9908,-25.1449,32.5621,-8.77704,-0.439542,3.18311,9.34676,2.17915,5.79539,-0.143686,48.8198,7,0,0,0
0,1405701922,87732,-7.96655,19.0406,-25.4839,32.7939,-8.77757,-0.442056,3.18715,9.34875,1.25176,4.56179,-1.70091,48.7946,7,0,0,0
0,1405701923,88742,-8.39461,18.802,-25.3899,32.69,-8.7916,-0.426562,3.22493,9.37413,3.04204,5.5588,-1.55141,48.5974,7,0,0,0
0,1405701924,89750,-8.21999,18.4801,-25.3739,32.4487,-8.79453,-0.409759,3.21002,9.37102,1.28729,4.52908,-0.534608,48.7557,7,0,0,0
0,1405701925,90757,-8.37033,18.6688,-25.5205,32.7091,-8.79762,-0.430533,3.21246,9.37568,1.85233,5.0939,-1.03716,48.665,7,0,0,0
0,1405701926,91761,-7.95053,18.9224,-25.4172,32.6697,-8.77086,-0.42492,3.20167,9.34662,1.5924,4.75392,-1.08388,48.767,8,0,0,0
0,1405701927,92768,-8.349,18.9005,-25.3251,32.6848,-8.80074,-0.434572,3.21009,9.37798,2.85013,5.41551,-0.963677,48.7113,5,0,0,0
0,1405701928,93775,-8.34748,18.9205,-24.8803,32.3526,-8.76332,-0.439086,3.20873,9.34262,0.253619,3.88192,-1.40804,48.7454,7,0,0,0
0,1405701930,95041,-8.48984,18.6988,-25.2915,32.5788,-8.78398,-0.422319,3.18803,9.35415,1.91645,5.19322,-1.5621,48.8763,2,0,0,0
0,1405701931,96047,-8.15164,18.7786,-25.4937,32.6958,-8.77679,-0.429268,3.19148,9.34889,2.02345,3.7868,-1.49607,48.8292,6,0,0,0
0,1405701932,97048,-8.01346,19.0093,-25.3084,32.6509,-8.78659,-0.416665,3.20717,9.36289,0.375522,5.15279,-0.40564,48.8435,7,0,0,0
0,1405701933,98054,-8.38425,18.9947,-25.3022,32.7306,-8.769,-0.423552,3.20494,9.34593,1.99889,4.55265,-2.19158,48.7926,6,0,0,0
0,1405701934,99056,-8.23044,18.9278,-25.4785,32.7896,-8.78461,-0.411765,3.23361,9.3699,-0.422286,4.88859,-1.18346,48.8501,7,0,0,0
0,1405701935,100063,-8.41773,18.7365,-25.4395,32.6969,-8.78788,-0.43457,3.20989,9.36584,2.84758,5.30658,-0.391021,48.8527,7,0,0,0
0,1405701936,101070,-8.66304,18.4617,-25.5649,32.7024,-8.78582,-0.443043,3.19934,9.3607,2.8655,5.10166,-1.63515,48.8304,7,0,0,0
0,1405701937,102075,-8.22135,19.1715,-25.1112,32.6452,-8.78503,-0.425621,3.19754,9.35854,2.51112,5.00805,-1.01553,48.8558,6,0,0,0
0,1405701938,103076,-8.00863,18.8006,-25.4996,32.6777,-8.76588,-0.462178,3.17708,9.33531,2.37076,3.35577,-1.03205,48.8335,6,0,0,0
0,1405701939,104077,-8.34936,18.7775,-25.2899,32.5866,-8.77582,-0.447651,3.19358,9.34956,2.0435,3.7634,-2.18773,48.9073,5,0,0,0
0,1405701940,105082,-7.9797,19.0079,-25.5391,32.821,-8.77924,-0.434159,3.21602,9.35983,1.12626,5.96381,-1.22378,48.8397,7,0,0,0
0,1405701941,106084,-8.34974,18.9432,-25.3844,32.7556,-8.76764,-0.452991,3.23628,9.35683,2.88132,5.41687,-0.790477,48.8722,7,0,0,0
0,1405701942,107085,-8.1941,18.9713,-25.4231,32.7626,-8.78193,-0.444124,3.18692,9.35286,0.129058,5.00375,-0.296086,48.9255,7,0,0,0
0,1405701943,108092,-8.15562,18.6732,-25.468,32.6162,-8.78448,-0.438061,3.1939,9.35735,2.83104,4.34957,-1.10609,48.872,7,0,0,0
0,1405701944,109100,-8.16487,19.0661,-25.1416,32.5927,-8.79602,-0.417659,3.18583,9.3645,2.58305,4.77793,-0.779431,48.7891,6,0,0,0
0,1405701945,110103,-8.12722,18.9721,-25.1591,32.5419,-8.79223,-0.426431,3.20743,9.36871,2.44409,5.48563,-1.14831,48.9144,7,0,0,0
0,1405701946,111105,-8.28951,18.9617,-25.2257,32.6282,-8.79821,-0.42507,3.18464,9.36649,1.33838,6.12841,-2.2408,48.9093,7,0,0,0
0,1405701947,112115,-8.10637,18.96,-25.3724,32.6949,-8.78722,-0.423653,3.21105,9.36513,2.18545,5.72666,-0.453888,49.0377,6,0,0,0
0,1405701948,113118,-8.21494,18.9792,-24.9016,32.3695,-8.7886,-0.424502,3.21936,9.36931,1.01485,5.19733,-2.63162,48.9692,6,0,0,0
0,1405701949,114126,-8.23714,18.9659,-24.9783,32.4264,-8.77903,-0.422778,3.22102,9.36083,2.9781,5.34848,-0.436948,48.9167,5,0,0,0
0,1405701950,115129,-8.25985,18.9984,-25.463,32.8257,-8.79377,-0.479205,3.19737,9.36927,0.677286,5.471,-0.37712,48.9745,5,0,0,0
0,1405701951,116138,-8.38256,18.5135,-25.317,32.4649,-8.78238,-0.461468,3.24324,9.37346,2.56487,4.72641,-1.18707,48.9088,7,0,0,0
0,1405701952,117146,-8.46038,18.7597,-25.262,32.5834,-8.78361,-0.454605,3.20437,9.36089,3.09766,4.85487,-0.99651,48.9844,5,0,0,0
0,1405701953,118156,-8.21276,18.8577,-25.0484,32.4112,-8.81017,-0.408991,3.20424,9.38368,1.24248,4.11632,-1.40569,48.8908,6,0,0,0
0,1405701954,119163,-8.03416,18.8209,-25.5629,32.745,-8.78911,-0.468647,3.2009,9.36556,2.56366,4.94793,0.345586,48.9909,7,0,0,0
0,1405701955,120166,-8.45846,18.7806,-25.4358,32.7297,-8.79973,-0.427591,3.1919,9.3705,3.5052,4.61089,-0.36247,49.076,7,0,0,0
0,1405701956,121169,-8.19439,18.7059,-25.1502,32.3974,-8.78647,-0.443223,3.21053,9.36515,3.10417,4.15618,-0.922334,48.9683,7,0,0,0
0,1405701957,122171,-8.20029,18.7309,-25.2973,32.5276,-8.78764,-0.43258,3.2251,9.37075,0.215101,4.72149,-1.46802,48.8788,6,0,0,0
0,1405701958,123175,-8.15482,18.676,-25.3648,32.5371,-8.7715,-0.420184,3.20609,9.34852,-0.136701,5.12866,-1.37022,48.9212,7,0,0,0
0,1405701959,124177,-8.29437,18.8907,-25.3484,32.6833,-8.78486,-0.428998,3.19427,9.35741,3.90511,4.87084,-0.930523,49.1098,6,0,0,0
0,1405701960,125180,-8.54782,18.2972,-25.0875,32.2062,-8.77661,-0.404683,3.21773,9.35663,3.33282,5.52573,-1.38421,48.964,2,0,0,0
0,1405701961,126183,-8.32678,18.9818,-25.9327,33.1986,-8.76377,-0.458671,3.19233,9.33837,1.91921,5.4375,-1.70939,48.9489,7,0,0,0
0,1405701962,127190,-8.20294,18.6266,-25.1442,32.3491,-8.78884,-0.45117,3.18784,9.36,3.35482,4.18384,-1.96815,48.9574,6,0,0,0
0,1405701963,128191,-8.22079,18.9743,-25.3023,32.6774,-8.77331,-0.442144,3.20858,9.35208,3.1346,6.63319,-1.41001,49.0338,6,0,0,0
0,1405701964,129195,-8.23314,18.5668,-25.2315,32.3904,-8.78483,-0.436221,3.21588,9.36512,1.56805,4.63797,-2.29353,48.8893,6,0,0,0
0,1405701965,130204,-8.28759,18.9727,-25.2831,32.6785,-8.80025,-0.447022,3.20451,9.37619,1.05018,5.90431,-0.889803,48.9994,6,0,0,0
0,1405701966,131205,-8.3115,18.7889,-25.4331,32.6948,-8.77547,-0.449427,3.19037,9.34823,1.9897,4.91524,-1.87382,48.9876,6,0,0,0
0,1405701967,132216,-8.53837,18.8056,-25.5285,32.8368,-8.7743,-0.433233,3.17203,9.34012,0.0609672,5.13003,-1.62377,48.8975,6,0,0,0
0,1405701968,133218,-8.07255,18.985,-25.3049,32.6487,-8.73126,-0.446088,3.23203,9.32094,1.62806,4.91548,-1.27496,48.913,6,0,0,0
0,1405701969,134222,-8.34389,18.6723,-25.1496,32.4157,-8.80407,-0.47181,3.17528,9.37105,3.55737,5.31691,-0.512374,48.9617,7,0,0,0
0,1405701970,135226,-8.16045,18.7715,-25.4286,32.6431,-8.76799,-0.42724,3.2023,9.34425,2.2389,4.70687,-2.21666,49.0649,7,0,0,0
0,1405701971,136233,-8.1635,19.048,-25.1844,32.6148,-8.7966,-0.4223,3.20601,9.37214,1.89658,5.46185,-2.0489,48.9902,7,0,0,0
0,1405701972,137234,-7.99124,19.0875,-25.4032,32.7646,-8.79299,-0.453171,3.21761,9.37417,1.70852,4.49893,-0.565207,49.0421,7,0,0,0
0,1405701973,138238,-8.32121,18.7188,-25.2593,32.5218,-8.79261,-0.425804,3.20423,9.36794,0.358007,5.58215,-2.15846,48.876,6,0,0,0
0,1405701974,139245,-8.28985,18.6732,-25.3118,32.5284,-8.77388,-0.454207,3.19632,9.349,2.57416,4.93103,-1.02904,49.0443,7,0,0,0
0,1405701975,140253,-8.12178,18.8642,-25.4448,32.6995,-8.78466,-0.411267,3.20615,9.36049,0.642064,4.19831,-1.11479,48.8792,6,0,0,0
0,1405701976,141262,-8.10638,18.812,-25.5383,32.7385,-8.79563,-0.466627,3.20385,9.37259,2.54946,5.19542,-2.54158,48.8561,6,0,0,0
0,1405701977,142264,-8.38079,18.656,-25.536,32.7166,-8.77709,-0.40648,3.20514,9.35283,0.608571,4.84222,-1.64513,48.9385,8,0,0,0
0,1405701978,143273,-8.39354,18.9114,-25.4314,32.7849,-8.7908,-0.443851,3.21203,9.36975,1.00416,5.5124,-1.22709,48.6933,6,0,0,0
0,1405701979,144279,-8.28433,19.0716,-25.2507,32.7102,-8.76741,-0.428872,3.22339,9.35103,0.901355,4.94219,-2.35227,48.7664,7,0,0,0
0,1405701980,145291,-8.02602,18.8319,-25.6124,32.788,-8.79361,-0.424504,3.22153,9.37476,2.42256,4.59219,-1.12093,48.9421,6,0,0,0
0,1405701981,146296,-8.17682,18.9558,-25.3546,32.6961,-8.79018,-0.409493,3.19814,9.36286,2.06235,5.65025,-1.11604,48.7341,7,0,0,0
0,1405701982,147306,-8.28859,18.8543,-25.4527,32.7418,-8.78805,-0.426009,3.19486,9.36047,2.41059,5.85922,-1.12067,48.8733,7,0,0,0
0,1405701983,148313,-8.31848,18.5516,-25.1728,32.3579,-8.7753,-0.440726,3.20033,9.35106,1.79399,5.48226,-1.50127,48.9531,7,0,0,0
0,1405701984,149314,-8.56848,18.5581,-25.2767,32.5075,-8.7946,-0.435818,3.22383,9.37699,0.5797,4.57843,-0.498538,48.7913,6,0,0,0
0,1405701985,150539,-8.50184,18.4733,-25.4092,32.5449,-8.77126,-0.44002,3.18367,9.34154,2.58272,4.06233,-0.654548,48.9221,5,0,0,0
0,1405701986,151540,-8.09399,19.1471,-25.5326,32.9247,-8.79107,-0.434734,3.1973,9.36454,2.73163,5.68276,-0.527712,48.8845,6,0,0,0
0,1405701987,152549,-8.31,18.9548,-25.4184,32.7786,-8.79632,-0.429653,3.21828,9.37642,2.11279,4.82582,-1.66844,48.8458,6,0,0,0
0,1405701988,153554,-8.17246,18.937,-25.5239,32.8156,-8.78702,-0.439248,3.19334,9.3596,0.688118,5.03219,-0.727485,48.9368,5,0,0,0
0,1405701989,154555,-7.98405,18.6027,-25.4158,32.4926,-8.75965,-0.430784,3.23007,9.34614,2.07165,4.3479,-0.856501,48.9815,5,0,0,0
0,1405701990,155556,-8.22877,18.9543,-25.3328,32.6914,-8.78309,-0.418612,3.17254,9.34788,3.16824,5.42572,-0.766653,48.91,6,0,0,0
0,1405701991,156564,-8.35273,18.844,-25.3997,32.711,-8.78235,-0.451757,3.19473,9.35628,2.95443,5.13745,0.00660613,48.9702,7,0,0,0
0,1405701992,157571,-8.28895,18.9139,-25.2573,32.6247,-8.78135,-0.438136,3.19155,9.35362,0.935945,5.0005,-0.776824,49.0546,6,0,0,0
0,1405701993,158577,-8.18922,18.7729,-25.4792,32.6906,-8.79546,-0.415729,3.16886,9.35813,0.90203,6.35968,-1.6712,48.9892,7,0,0,0
0,1405701994,159580,-8.21918,18.8412,-25.4097,32.6833,-8.79314,-0.412921,3.2,9.36642,0.879959,5.60067,-1.83451,48.982,6,0,0,0
0,1405701995,160593,-8.31115,18.9602,-25.3919,32.7614,-8.7779,-0.427776,3.19528,9.35116,0.0190026,6.08863,-0.793083,49.044,6,0,0,0
0,1405701996,161595,-8.32782,18.9375,-25.4794,32.8205,-8.76575,-0.430331,3.21457,9.3465,2.13028,5.9856,-1.64052,48.9659,6,0,0,0
0,1405701997,162603,-8.27789,18.8533,-25.0827,32.4517,-8.7856,-0.433421,3.19407,9.35825,1.58231,5.47954,-1.33577,49.0053,7,0,0,0
0,1405701998,163609,-8.48435,18.7588,-25.4675,32.7486,-8.79564,-0.427552,3.21455,9.3744,2.63513,5.42938,-1.03271,49.0165,7,0,0,0
0,1405701999,164617,-8.05162,18.8746,-25.3331,32.6013,-8.77732,-0.429938,3.18563,9.34743,2.94546,6.01442,-0.450597,48.9308,7,0,0,0
0,1405702000,165623,-8.2111,18.8351,-25.6884,32.8949,-8.76871,-0.446251,3.23109,9.35571,1.95164,5.67684,-1.37518,48.825,7,0,0,0
0,1405702001,166629,-8.02024,18.7314,-25.4103,32.5711,-8.75517,-0.45207,3.17994,9.32574,1.75643,5.0014,-1.11265,48.8983,7,0,0,0
0,1405702002,167632,-8.17761,18.9453,-25.3953,32.7219,-8.77317,-0.424115,3.1924,9.34558,1.15203,5.84475,-1.20663,48.9015,7,0,0,0
0,1405702003,168638,-8.2179,18.7318,-25.4297,32.6356,-8.79453,-0.425497,3.21441,9.37322,1.84562,4.96621,-0.34275,49.0015,5,0,0,0
0,1405702004,169640,-8.16114,19.0769,-25.1033,32.5684,-8.79382,-0.4054,3.21231,9.37094,2.42645,4.37075,-1.13891,48.9588,6,0,0,0
0,1405702005,170646,-8.23015,18.8275,-24.899,32.2827,-8.76852,-0.433641,3.18326,9.33853,2.86725,4.76098,-0.631104,48.9372,7,0,0,0
0,1405702006,171655,-8.04537,19.0651,-24.9462,32.4117,-8.79342,-0.442108,3.20212,9.36874,0.647323,4.47454,-1.9225,48.7808,7,0,0,0
0,1405702007,172659,-8.07505,18.7055,-25.1636,32.3776,-8.77012,-0.441051,3.18166,9.33983,1.84755,4.96251,-0.64492,48.9554,7,0,0,0
0,1405702008,173660,-8.14559,18.6749,-25.1476,32.3651,-8.78417,-0.44461,3.23448,9.37129,4.03225,5.96526,-0.949812,48.9006,5,0,0,0
0,1405702009,174663,-8.27095,18.8652,-25.3067,32.6302,-8.77662,-0.428971,3.20739,9.35416,2.17837,5.63787,-1.30527,49.1077,6,0,0,0
0,1405702010,175669,-8.19672,19.219,-25.3937,32.8846,-8.79014,-0.432041,3.20006,9.36449,2.3745,5.27256,-1.84479,49.0859,7,0,0,0
0,1405702011,176675,-8.25049,18.7936,-25.3958,32.653,-8.78604,-0.419356,3.23063,9.37056,2.4115,5.06395,-1.66774,48.9406,7,0,0,0
0,1405702012,177684,-8.0137,19.0871,-25.1086,32.542,-8.7792,-0.441547,3.21365,9.35932,1.50734,4.89703,-2.1518,48.9664,7,0,0,0
0,1405702013,178685,-8.32365,18.7196,-25.3999,32.6322,-8.78118,-0.441877,3.21309,9.361,0.0236748,4.48935,-0.622107,48.9935,6,0,0,0
0,1405702014,179690,-8.38158,18.776,-25.3577,32.6466,-8.7658,-0.435945,3.2162,9.34737,1.16266,5.04655,-1.80907,48.8765,6,0,0,0
0,1405702015,180694,-8.4496,18.6442,-25.1874,32.4562,-8.78836,-0.438972,3.19086,9.36,1.20115,5.30643,-1.48791,48.9632,7,0,0,0
0,1405702016,181703,-8.11459,18.6089,-25.6039,32.6756,-8.78499,-0.435882,3.20956,9.36309,2.42098,6.22615,-1.59592,49.0187,6,0,0,0
0,1405702017,182707,-8.1185,18.9922,-25.0321,32.4534,-8.7999,-0.44263,3.20036,9.37425,2.96988,4.42711,-1.26993,48.8755,7,0,0,0
0,1405702018,183710,-8.41731,18.8728,-25.6017,32.9011,-8.7814,-0.427957,3.16554,9.34435,2.08495,4.32149,-1.22308,48.8863,7,0,0,0
0,1405702019,184718,-8.32112,18.7976,-25.4143,32.6876,-8.77174,-0.420164,3.20983,9.35002,2.39251,5.65853,-0.841244,48.9477,7,0,0,0
0,1405702020,185726,-8.07941,19.1298,-25.1221,32.5937,-8.78873,-0.42932,3.22424,9.37133,0.845283,6.34285,-2.04368,48.9344,7,0,0,0
0,1405702021,186730,-8.07173,19.1301,-25.0793,32.5589,-8.78606,-0.407407,3.19286,9.35709,1.95137,3.85805,0.278392,48.8814,5,0,0,0
0,1405702022,187739,-8.28151,18.805,-25.5851,32.8148,-8.78305,-0.43689,3.21338,9.36262,3.12478,4.09959,-0.489429,48.9598,7,0,0,0
0,1405702023,188745,-8.20776,18.9764,-25.2916,32.6671,-8.78588,-0.421228,3.19976,9.35989,3.17897,5.61875,-0.717212,48.7657,6,0,0,0
0,1405702024,189754,-8.20656,18.6939,-25.3979,32.5862,-8.78534,-0.438109,3.19119,9.35723,2.55145,4.20608,-1.32524,48.8059,7,0,0,0
0,1405702025,190758,-8.37464,18.7532,-25.3212,32.6034,-8.78591,-0.436524,3.19933,9.36047,0.393334,4.5308,-1.66376,48.7605,7,0,0,0
0,1405702026,191764,-8.35927,18.8055,-25.3014,32.6142,-8.78362,-0.430408,3.19216,9.35559,2.26823,4.16579,-0.849071,48.7708,7,0,0,0
0,1405702027,192770,-8.32354,18.8566,-25.2653,32.6066,-8.77319,-0.420421,3.23575,9.36032,3.07193,5.58017,-1.06824,48.845,7,0,0,0
0,1405702028,193777,-8.25746,18.5039,-25.4842,32.558,-8.76211,-0.434942,3.20481,9.33995,2.39352,5.2372,-0.760193,48.7469,6,0,0,0
0,1405702029,194789,-8.30529,18.6998,-25.6882,32.8411,-8.81587,-0.423611,3.20193,9.38889,0.797869,4.67133,-2.89786,48.791,7,0,0,0
0,1405702030,195793,-8.36376,18.4693,-25.4901,32.5701,-8.77671,-0.432912,3.21847,9.35824,1.9218,5.82963,-1.41609,48.7806,6,0,0,0
0,1405702031,196800,-8.29044,18.9529,-25.3027,32.6829,-8.78048,-0.42574,3.21186,9.35918,1.95507,4.30401,-1.1086,48.7989,6,0,0,0
0,1405702032,197805,-8.48689,19.0038,-25.2667,32.7349,-8.79005,-0.442095,3.20312,9.36592,1.99002,5.14902,-1.78339,48.7931,7,0,0,0
0,1405702033,198806,-8.41877,18.7541,-25.5541,32.7964,-8.77143,-0.41948,3.20214,9.34707,3.73968,4.83661,-1.25572,48.8197,7,0,0,0
0,1405702034,199812,-8.2866,18.8735,-25.382,32.6974,-8.77672,-0.43095,3.18658,9.34724,1.46561,5.3023,-1.09509,48.7092,6,0,0,0
0,1405702035,200814,-8.33879,18.8503,-25.5098,32.7967,-8.77545,-0.443642,3.1718,9.34161,0.279989,4.99072,-0.978536,48.7043,6,0,0,0
0,1405702036,201823,-8.29793,18.6627,-25.0908,32.3527,-8.78015,-0.402132,3.21408,9.35858,3.36012,5.47208,-1.41532,48.8188,7,0,0,0
0,1405702037,202827,-8.05,18.6375,-25.3271,32.4595,-8.76004,-0.436943,3.23836,9.34966,2.03553,4.26581,-2.32776,48.7482,6,0,0,0
0,1405702038,203834,-8.28401,18.8919,-25.3261,32.664,-8.78773,-0.432718,3.20273,9.36317,0.0961305,4.82991,-1.55281,48.7191,6,0,0,0
0,1405702039,204839,-8.27292,18.8268,-25.2839,32.5909,-8.78388,-0.454482,3.20961,9.36294,0.487795,5.98347,-2.0723,48.7916,7,0,0,0
0,1405702040,205840,-8.12365,18.9452,-25.2864,32.6239,-8.78131,-0.423787,3.22868,9.36564,1.51237,5.72522,-0.942312,48.7727,6,0,0,0
0,1405702041,206841,-8.15357,18.8869,-25.5412,32.7955,-8.73786,-0.426768,3.21047,9.31877,1.11474,5.58737,-1.84742,48.7806,6,0,0,0
0,1405702042,207846,-8.30672,18.7242,-25.3937,32.6257,-8.78374,-0.426874,3.20141,9.35871,0.991912,5.50739,-1.29627,48.7526,7,0,0,0
0,1405702043,208852,-8.00696,19.0666,-25.2549,32.6413,-8.78597,-0.461379,3.22667,9.3711,3.76838,4.35356,-1.44147,48.7602,6,0,0,0
0,1405702044,209856,-8.54412,18.8064,-25.4381,32.7686,-8.77785,-0.446893,3.20438,9.35513,2.19346,4.80619,-0.720705,48.7527,6,0,0,0
0,1405702045,210858,-8.22891,18.8166,-25.5773,32.8021,-8.78481,-0.429167,3.19487,9.35758,0.877854,4.08202,-1.97013,48.7461,6,0,0,0
0,1405702046,211862,-8.55769,18.6788,-25.6441,32.8596,-8.79187,-0.439033,3.23433,9.37819,2.81419,4.8162,-2.15316,48.8266,8,0,0,0
0,1405702047,212870,-8.23087,18.8802,-25.5705,32.8338,-8.78387,-0.422576,3.20623,9.36028,1.03169,4.80301,-0.519592,48.7898,6,0,0,0
0,1405702048,213872,-8.24553,18.9211,-25.4251,32.748,-8.76449,-0.426471,3.1953,9.33852,0.727382,4.46512,-0.498533,48.767,6,0,0,0
0,1405702049,214874,-8.26605,19.0419,-25.2222,32.6662,-8.76982,-0.418086,3.19164,9.3419,0.640126,4.94637,-1.7223,48.8284,7,0,0,0
0,1405702050,215883,-8.19782,18.8525,-25.3198,32.6146,-8.76681,-0.448683,3.19776,9.34258,1.08407,5.09003,-0.642704,48.8779,6,0,0,0
0,1405702051,216894,-8.10594,19.0644,-24.8247,32.333,-8.77303,-0.420974,3.20585,9.3499,1.84958,5.78195,-0.628743,48.8154,5,0,0,0
0,1405702052,217901,-8.21585,18.7252,-25.4572,32.6528,-8.77963,-0.426625,3.22341,9.36238,2.08172,5.3387,-0.944752,48.8626,6,0,0,0
0,1405702053,218908,-8.20018,18.9295,-25.0985,32.4885,-8.78277,-0.444354,3.20045,9.35828,2.08887,4.81256,-0.953361,48.8428,6,0,0,0
0,1405702054,219911,-8.16784,18.8628,-25.326,32.6179,-8.78461,-0.429488,3.21841,9.36546,3.7089,4.41837,-1.16132,48.7793,6,0,0,0
0,1405702055,220914,-8.57562,18.8119,-25.255,32.6381,-8.77824,-0.423791,3.18291,9.34709,2.89661,4.65241,-1.29513,48.868,6,0,0,0
0,1405702056,221924,-8.40245,18.874,-25.2248,32.6055,-8.7839,-0.43715,3.19915,9.35856,2.15128,4.63489,-2.38075,48.8218,6,0,0,0
0,1405702057,222936,-8.34528,18.8615,-25.3151,32.6536,-8.79479,-0.391558,3.19466,9.36523,1.64788,4.54002,-1.33935,48.8683,6,0,0,0
0,1405702058,223951,-8.26534,19.0867,-25.2706,32.7295,-8.77711,-0.424119,3.20743,9.35442,1.35047,5.5482,-1.85276,48.7941,7,0,0,0
0,1405702059,224962,-8.00808,18.7093,-25.2934,32.4642,-8.78693,-0.452996,3.20156,9.36298,2.18213,4.92566,-0.424947,48.8296,6,0,0,0
0,1405702060,225970,-8.08748,18.8259,-24.7911,32.1624,-8.77715,-0.424674,3.19616,9.35062,1.13701,4.23793,0.772548,48.9394,7,0,0,0
0,1405702061,226981,-8.11847,18.965,-25.3112,32.6533,-8.78863,-0.415793,3.19077,9.35916,2.17643,4.697,-0.399,48.883,7,0,0,0
0,1405702062,227982,-8.22243,19.0183,-25.4395,32.8096,-8.76521,-0.436269,3.20206,9.34197,1.4275,5.10367,0.124222,48.8724,6,0,0,0
0,1405702063,228991,-8.0869,19.0603,-25.4007,32.7703,-8.7821,-0.453178,3.21213,9.36207,1.84898,4.18134,-2.40297,48.9424,6,0,0,0
0,1405702064,229992,-8.33089,18.9097,-25.2086,32.5953,-8.78918,-0.433578,3.22304,9.37154,0.703021,4.71278,-0.956273,48.8847,7,0,0,0
0,1405702065,230997,-8.32868,18.5147,-25.2003,32.3607,-8.79978,-0.444195,3.22024,9.38101,2.20465,5.00996,-1.31053,49.0013,6,0,0,0
0,1405702066,231998,-8.35982,18.9092,-25.1269,32.5393,-8.78894,-0.410853,3.19946,9.3622,1.03801,5.26704,-0.243469,48.9027,7,0,0,0
0,1405702067,232999,-8.37345,18.8443,-25.0497,32.4455,-8.78056,-0.434314,3.21851,9.36193,1.66542,5.47668,-1.71224,48.8657,6,0,0,0
0,1405702069,234008,-8.18453,19.2064,-25.5264,32.9768,-8.79507,-0.408163,3.19242,9.36544,0.570853,5.09954,-2.0822,48.8638,7,0,0,0
0,1405702070,235009,-8.31425,18.9073,-25.576,32.8747,-8.77984,-0.448209,3.16971,9.34524,4.22351,5.14126,-0.0713197,48.8713,6,0,0,0
0,1405702071,236015,-8.32056,18.4804,-25.5725,32.6299,-8.78794,-0.428619,3.19494,9.36052,2.05198,5.09571,-1.49471,48.9551,5,0,0,0
0,1405702072,237019,-8.31226,19.2463,-25.4112,32.943,-8.7803,-0.424392,3.20003,9.35489,2.82067,5.91518,-1.96549,48.8745,8,0,0,0
0,1405702073,238022,-8.22165,18.7962,-25.4187,32.665,-8.79512,-0.426118,3.20434,9.37035,1.56639,5.47666,-2.12141,48.9183,6,0,0,0
0,1405702074,239025,-8.30191,18.7352,-25.27,32.5347,-8.76812,-0.41581,3.19655,9.34188,3.36278,4.8195,-0.878088,48.9032,6,0,0,0
0,1405702075,240030,-8.13975,18.9376,-25.3368,32.6626,-8.78035,-0.429808,3.19024,9.35184,2.90474,4.49852,-0.521351,48.9557,6,0,0,0
0,1405702076,241032,-8.19259,18.7085,-25.4522,32.6335,-8.77523,-0.428391,3.17922,9.34321,0.1413,5.56753,-1.00242,48.925,7,0,0,0
0,1405702077,242038,-7.98989,18.9832,-25.5785,32.8399,-8.77343,-0.424027,3.20797,9.35115,0.104971,5.29817,-1.47436,48.9102,7,0,0,0
0,1405702078,243040,-8.36817,18.7792,-25.1621,32.4933,-8.76718,-0.397624,3.20683,9.34373,0.517812,4.50591,-0.214268,48.8445,6,0,0,0
0,1405702079,244043,-8.36943,18.739,-25.2583,32.545,-8.79691,-0.402891,3.19274,9.36705,1.33786,5.1598,-1.45425,48.9219,7,0,0,0
0,1405702080,245054,-8.0817,18.7892,-25.2497,32.4946,-8.77406,-0.420299,3.17138,9.33908,1.35547,4.75887,-1.31992,48.8003,6,0,0,0
0,1405702081,246062,-8.08442,18.925,-25.359,32.6588,-8.79548,-0.433006,3.2017,9.37011,1.84349,5.57804,-0.846347,48.7945,6,0,0,0
0,1405702082,247067,-8.16243,19.0551,-25.228,32.6523,-8.76683,-0.445189,3.20698,9.3456,0.375323,4.99675,-1.89532,48.8966,6,0,0,0
0,1405702083,248068,-8.13738,18.8485,-25.3427,32.6149,-8.80652,-0.424462,3.19163,9.37665,3.09287,6.30752,-0.24443,48.8957,6,0,0,0
0,1405702084,249072,-8.19956,18.8419,-25.3126,32.6033,-8.77705,-0.428794,3.2185,9.35838,3.13236,4.68001,-1.58994,48.8974,6,0,0,0
0,1405702085,250075,-8.09556,18.8141,-25.3782,32.6123,-8.78839,-0.449954,3.20233,9.36447,1.23506,4.42782,-0.656864,48.9123,6,0,0,0
0,1405702086,251087,-8.26787,18.563,-25.1001,32.2949,-8.78239,-0.435975,3.21024,9.36088,1.13491,5.38948,-0.690392,48.8983,6,0,0,0
0,1405702087,252094,-8.10055,18.8867,-25.5089,32.7571,-8.80676,-0.44059,3.24798,9.39694,2.19586,4.86083,-1.39844,48.943,6,0,0,0
0,1405702088,253095,-8.40012,19.0206,-25.4044,32.8288,-8.78347,-0.439483,3.19408,9.35653,1.22983,5.1045,-1.12379,48.8925,7,0,0,0
0,1405702089,254096,-8.31255,18.8013,-25.3301,32.6222,-8.78523,-0.458681,3.2218,9.3686,2.39967,4.67055,-0.997818,48.9434,7,0,0,0
0,1405702090,255102,-8.2306,18.5561,-25.404,32.5182,-8.79458,-0.435632,3.22444,9.37717,2.71686,4.59871,-1.28253,48.9116,7,0,0,0
0,1405702091,256107,-7.9521,18.7841,-25.2404,32.4523,-8.79369,-0.425639,3.18021,9.36077,0.0540494,4.26118,-0.304768,48.9115,5,0,0,0
0,1405702092,257111,-8.22317,19.0184,-25.3904,32.7718,-8.78821,-0.418818,3.18839,9.35809,2.50617,5.63834,-0.647893,48.9463,7,0,0,0
0,1405702093,258112,-8.29649,19.0248,-24.8912,32.4091,-8.8124,-0.437812,3.21382,9.39036,2.57607,4.66609,-1.00206,48.9742,6,0,0,0
0,1405702094,259120,-8.10323,19.0393,-25.1824,32.5931,-8.79888,-0.391783,3.18549,9.36596,2.46493,4.3896,-0.859002,48.8592,7,0,0,0
0,1405702095,260125,-8.24519,18.6905,-25.103,32.3648,-8.78996,-0.428436,3.20086,9.36443,0.456462,4.59976,-1.32456,48.9334,6,0,0,0
0,1405702096,261130,-8.20798,18.9121,-25.3187,32.6508,-8.77447,-0.428386,3.21118,9.35342,1.40109,5.32349,-2.25943,48.7891,6,0,0,0
0,1405702097,262135,-8.2455,18.9096,-25.0375,32.4413,-8.782,-0.418562,3.19458,9.35436,0.835202,5.65121,-1.00101,48.9108,6,0,0,0
0,1405702098,263149,-8.11671,18.8068,-25.2286,32.4971,-8.77793,-0.425316,3.20703,9.35511,2.25385,5.16805,-1.99305,48.815,7,0,0,0
0,1405702099,264157,-8.06695,18.8838,-25.2735,32.5641,-8.78353,-0.425591,3.19883,9.35757,2.3531,4.17325,-0.803789,48.9238,5,0,0,0
0,1405702100,265158,-8.22255,18.9864,-25.5122,32.8476,-8.78522,-0.408188,3.18865,9.3549,1.68171,4.52224,-0.734979,48.806,6,0,0,0
0,1405702101,266165,-7.8852,18.7401,-25.3275,32.4784,-8.77447,-0.421351,3.22205,9.35684,1.95446,5.58639,-0.220302,48.9496,5,0,0,0
0,1405702102,267175,-8.04333,18.8873,-25.2467,32.5396,-8.77261,-0.422921,3.2133,9.35216,2.01302,4.3913,-0.993915,48.929,6,0,0,0
0,1405702103,268178,-8.31588,18.8763,-25.4302,32.7439,-8.77087,-0.432907,3.20693,9.34879,1.3454,5.25045,-0.223365,48.8688,6,0,0,0
0,1405702104,269186,-7.92004,18.7398,-25.5107,32.6298,-8.77603,-0.435295,3.19688,9.35031,1.81702,4.62228,-1.90141,48.8475,6,0,0,0
0,1405702105,270193,-7.96054,18.8674,-25.4803,32.6893,-8.79088,-0.408013,3.23121,9.37479,2.45342,3.85109,-1.66455,48.9712,7,0,0,0
0,1405702106,271201,-8.01331,18.8254,-25.251,32.4995,-8.78472,-0.43636,3.20185,9.36021,2.19422,4.22033,-1.54154,48.8128,6,0,0,0
0,1405702107,272210,-8.28192,18.9628,-25.3078,32.6904,-8.78335,-0.423462,3.21516,9.36289,1.25037,5.53942,0.227184,48.9436,7,0,0,0
0,1405702108,273219,-7.99392,18.6508,-25.3432,32.4659,-8.78144,-0.434544,3.22165,9.36384,2.70118,5.61722,-2.40092,48.9902,6,0,0,0
0,1405702109,274227,-8.21317,18.873,-25.3166,32.6279,-8.77056,-0.419003,3.19099,9.34241,3.1881,4.92524,-0.854667,48.8082,6,0,0,0
0,1405702110,275230,-8.05695,18.8828,-25.3004,32.582,-8.78318,-0.417349,3.20308,9.35832,1.60311,5.7654,-2.0389,48.8859,6,0,0,0
0,1405702111,276656,-8.75044,18.7207,-25.2867,32.6566,-8.77463,-0.431226,3.20059,9.35007,0.814528,5.28226,-1.57273,48.9011,4,0,0,0
0,1405702113,278084,-8.74463,18.7352,-25.3078,32.6796,-8.77709,-0.43194,3.20825,9.35504,1.71066,5.31782,-1.26424,48.9154,1,0,0,0
0,1405702114,279087,-8.07469,18.91,-25.0224,32.3868,-8.7702,-0.420928,3.18611,9.3405,2.3223,5.09792,-1.04877,48.9539,7,0,0,0
0,1405702115,280088,-8.11247,19.052,-25.2474,32.6531,-8.78366,-0.427905,3.20146,9.35869,0.578203,5.18435,-1.44768,48.7686,6,0,0,0
0,1405702116,281089,-8.14149,18.7648,-25.507,32.6957,-8.78378,-0.423384,3.19227,9.35546,1.70006,5.57054,-1.08228,48.7846,6,0,0,0
0,1405702117,282090,-8.19747,18.5177,-25.2417,32.3612,-8.79142,-0.427139,3.21812,9.37165,2.26223,5.22466,-1.72445,48.8222,6,0,0,0
0,1405702118,283093,-8.06589,18.8094,-25.2568,32.5078,-8.78025,-0.436572,3.21274,9.35976,0.944008,5.39465,-1.45512,48.8049,6,0,0,0
0,1405702119,284096,-8.22919,18.9917,-25.3528,32.7287,-8.79366,-0.432937,3.22756,9.37726,2.74997,4.40643,-1.29493,48.8058,6,0,0,0
0,1405702120,285103,-8.19058,18.986,-25.4801,32.8145,-8.78685,-0.451568,3.20495,9.364,0.582292,4.48714,-0.12077,48.7727,7,0,0,0
0,1405702121,286113,-8.17761,18.7494,-25.2179,32.4708,-8.78418,-0.429373,3.2106,9.36238,1.34206,5.36908,-0.964704,48.8931,7,0,0,0
0,1405702122,287122,-8.16586,18.9216,-25.2532,32.595,-8.78589,-0.42257,3.22671,9.36921,1.05343,5.47054,-1.02662,48.6984,7,0,0,0
0,1405702123,288126,-8.17137,18.8525,-25.5002,32.7483,-8.77979,-0.419804,3.2342,9.36595,1.44609,5.04599,-0.893789,48.8053,6,0,0,0
0,1405702124,289131,-8.37306,18.8494,-25.247,32.6009,-8.78053,-0.400717,3.1958,9.35262,1.34209,5.53308,-2.12279,48.8988,7,0,0,0
0,1405702125,290142,-8.14143,19.0027,-25.5221,32.8445,-8.75885,-0.448928,3.19827,9.3353,2.84294,6.04779,-0.952275,48.7855,7,0,0,0
0,1405702126,291143,-8.14483,18.7484,-25.4294,32.6266,-8.78992,-0.404318,3.20432,9.3645,2.37073,4.67796,-2.05527,48.8794,7,0,0,0
0,1405702127,292145,-8.32592,18.8507,-25.1762,32.5347,-8.7755,-0.41486,3.21573,9.35534,1.96405,5.23856,-1.41761,48.9547,7,0,0,0
0,1405702128,293152,-8.52142,18.8107,-25.3055,32.6623,-8.80167,-0.442024,3.20048,9.37592,2.78248,3.26898,-0.00795537,48.8859,7,0,0,0
0,1405702129,294158,-8.48673,18.6911,-25.2043,32.506,-8.79371,-0.434475,3.20036,9.36805,2.76803,4.40589,-0.997845,48.9151,7,0,0,0
0,1405702130,295166,-8.09708,19.1323,-25.2306,32.6832,-8.79219,-0.441745,3.19202,9.36412,1.54289,5.18081,-1.47756,49.0194,6,0,0,0
0,1405702131,296169,-8.19341,18.8543,-25.0464,32.4027,-8.78573,-0.436364,3.19957,9.36038,2.37569,5.45978,-1.76174,49.0101,7,0,0,0
0,1405702132,297174,-8.31496,18.7272,-25.4991,32.7116,-8.77569,-0.42995,3.20036,9.35092,1.55723,6.74384,-1.23634,48.7606,6,0,0,0
0,1405702133,298182,-8.28016,18.7906,-25.2257,32.5267,-8.78712,-0.43053,3.20169,9.36214,1.14038,5.36507,-0.740693,48.7769,7,0,0,0
0,1405702134,299185,-8.08461,18.9096,-25.5244,32.7784,-8.776,-0.408576,3.21998,9.35699,2.75795,5.36577,-0.143779,48.8769,6,0,0,0
0,1405702135,300195,-7.93057,19.1987,-25.1889,32.6491,-8.77705,-0.405503,3.18218,9.34491,3.50733,3.68191,-1.13695,48.8397,7,0,0,0
0,1405702136,301202,-7.98792,18.9343,-25.04,32.3932,-8.75708,-0.431618,3.29654,9.36696,0.172609,6.46914,-1.09633,48.9256,6,0,0,0
0,1405702137,302210,-7.9834,19.0552,-25.435,32.7685,-8.77457,-0.47192,3.22793,9.36137,1.08078,4.12438,-1.30452,48.8101,5,0,0,0
0,1405702138,303214,-8.25083,18.5015,-25.3438,32.4452,-8.80899,-0.415583,3.23376,9.39298,2.08123,5.25175,-1.15479,48.8668,7,0,0,0
0,1405702139,304223,-8.09534,18.939,-25.1897,32.5383,-8.79074,-0.435164,3.19899,9.36482,2.44524,5.44772,-1.10289,48.9732,6,0,0,0
0,1405702140,305231,-7.97269,18.8967,-25.0306,32.3602,-8.78152,-0.415806,3.21466,9.36066,-0.267342,5.10048,-2.22135,48.9432,7,0,0,0
0,1405702141,306234,-8.18619,18.8613,-25.3062,32.6062,-8.77357,-0.450502,3.20652,9.35202,0.908695,5.21694,-0.660426,48.9469,6,0,0,0
0,1405702142,307238,-8.10538,19.0109,-25.4284,32.7676,-8.8134,-0.427261,3.22591,9.39495,0.903743,5.69916,-1.11369,48.8182,6,0,0,0
0,1405702143,308241,-7.97424,18.9324,-25.3816,32.6535,-8.79162,-0.433461,3.22482,9.37443,2.93753,4.87578,-1.43085,48.8216,6,0,0,0
0,1405702144,309242,-8.07701,18.85,-25.4704,32.7002,-8.78075,-0.442808,3.21009,9.35961,3.28337,5.28925,-1.71733,48.8808,7,0,0,0
0,1405702145,310253,-8.27247,18.789,-25.0453,32.384,-8.79247,-0.435864,3.19645,9.36562,1.95127,4.0439,-0.979138,48.9011,6,0,0,0
0,1405702146,311256,-8.24468,18.8762,-25.4344,32.7291,-8.78467,-0.416547,3.18488,9.35347,0.743194,5.1034,0.198455,48.8822,7,0,0,0
0,1405702147,312261,-8.0123,19.1598,-25.2603,32.7013,-8.79343,-0.409557,3.20888,9.36958,1.82411,5.17253,-0.455522,48.9729,6,0,0,0
0,1405702148,313265,-8.01916,19.0725,-25.0658,32.5017,-8.78864,-0.440401,3.20722,9.36592,1.67251,4.3711,-1.53765,48.9423,6,0,0,0
0,1405702149,314267,-8.44366,18.7654,-25.5734,32.8243,-8.80885,-0.419387,3.17922,9.37439,3.05164,5.70674,-0.662197,48.863,6,0,0,0
0,1405702150,315276,-8.21229,18.9832,-25.2804,32.6635,-8.76971,-0.437168,3.20491,9.34721,-0.311212,4.92223,-1.39343,48.8166,6,0,0,0
0,1405702151,316279,-8.07782,18.7224,-25.4886,32.6412,-8.79116,-0.439589,3.24151,9.38004,0.859059,4.52124,-0.748383,48.7851,6,0,0,0
0,1405702152,317280,-8.20747,18.6516,-25.3896,32.5557,-8.76045,-0.43171,3.23083,9.3472,2.58827,4.1796,-1.88689,48.7253,7,0,0,0
0,1405702153,318282,-8.15494,18.8195,-25.3467,32.6057,-8.7688,-0.418939,3.2022,9.34459,1.73146,5.98085,-1.60517,48.7495,5,0,0,0
0,1405702154,319285,-8.22677,18.9066,-25.1792,32.5443,-8.79025,-0.434063,3.21705,9.3705,0.995,4.31963,-1.5476,48.7476,7,0,0,0
0,1405702155,320293,-8.28596,18.5719,-25.238,32.4119,-8.78165,-0.431443,3.20713,9.35891,1.37808,4.96936,-2.01265,48.9358,7,0,0,0
0,1405702156,321303,-8.133,18.9646,-25.1048,32.497,-8.7817,-0.445964,3.1969,9.35614,0.613513,4.52536,-2.17065,48.8666,7,0,0,0
0,1405702157,322305,-8.32161,18.7757,-25.1271,32.4522,-8.76516,-0.41393,3.2267,9.34938,0.565952,5.68063,-0.85838,48.8106,6,0,0,0
0,1405702158,323313,-8.19963,18.6897,-25.1428,32.3836,-8.76457,-0.430719,3.21732,9.34636,0.731968,4.43677,-1.39929,48.8169,6,0,0,0
0,1405702159,324314,-8.258,18.7204,-25.5074,32.6998,-8.78774,-0.432557,3.1956,9.36073,0.986851,5.24644,0.357024,48.7125,7,0,0,0
0,1405702160,325320,-8.20882,18.8649,-25.3942,32.6824,-8.78859,-0.428037,3.20965,9.36613,1.01434,4.23171,-0.834915,48.8324,7,0,0,0
0,1405702161,326324,-8.26661,18.8896,-25.4532,32.757,-8.78121,-0.420147,3.22874,9.36542,2.10228,6.11855,-0.798057,48.9258,6,0,0,0
0,1405702162,327333,-8.10606,18.8645,-25.4527,32.702,-8.77244,-0.432087,3.2126,9.35217,3.38086,5.15072,-0.446309,48.7526,6,0,0,0
0,1405702163,328337,-8.25926,18.5436,-25.3663,32.4889,-8.78346,-0.42818,3.20055,9.35821,1.8423,4.93147,-1.90635,48.7742,6,0,0,0
0,1405702164,329345,-8.376,18.4665,-25.602,32.6593,-8.78771,-0.430125,3.1965,9.3609,2.39143,4.15081,-1.88316,48.7647,6,0,0,0
0,1405702165,330350,-8.19765,18.9027,-25.5242,32.8024,-8.77097,-0.433289,3.19288,9.34409,3.05389,5.09132,-0.628086,48.8314,7,0,0,0
0,1405702166,331358,-8.10577,18.5432,-24.9897,32.1565,-8.81515,-0.443775,3.20238,9.38931,1.91163,5.0059,-0.327276,48.7973,7,0,0,0
0,1405702167,332366,-8.04245,18.5689,-25.3874,32.4654,-8.79611,-0.438207,3.19525,9.36873,3.50295,4.4123,-1.83185,48.7871,7,0,0,0
0,1405702168,333370,-8.35934,18.7372,-25.5377,32.7587,-8.78212,-0.43,3.21386,9.3616,2.13326,4.61412,-0.373429,48.7332,6,0,0,0
0,1405702169,334377,-7.9435,18.6646,-25.3215,32.4445,-8.79037,-0.421628,3.18669,9.35967,3.30678,3.8517,-0.681857,48.7753,7,0,0,0
0,1405702170,335381,-8.24113,19.0003,-25.4344,32.8,-8.77437,-0.425946,3.206,9.35144,2.49745,4.7149,-1.7751,48.7958,6,0,0,0
0,1405702171,336386,-8.20363,18.7534,-25.4454,32.6567,-8.78201,-0.420789,3.20347,9.35751,1.98355,5.06206,-0.804595,48.7584,6,0,0,0
0,1405702172,337392,-7.58545,18.9628,-25.1685,32.4126,-8.78128,-0.4142,3.18768,9.35114,0.44667,4.59543,-0.939529,48.6892,7,0,0,0
0,1405702173,338396,-8.23892,18.9037,-25.1305,32.508,-8.78756,-0.420419,3.21016,9.36499,1.64749,7.03871,-1.18013,48.8383,6,0,0,0
0,1405702174,339401,-8.007,19.0257,-25.0273,32.4416,-8.76537,-0.418877,3.20878,9.34363,2.57583,4.08647,-1.5675,48.8108,7,0,0,0
0,1405702175,340404,-8.35116,18.8201,-25.2598,32.5883,-8.79264,-0.439764,3.20309,9.36823,3.59588,5.69898,-0.461214,48.8883,7,0,0,0
0,1405702176,341406,-8.14831,19.3737,-25.1954,32.8107,-8.79462,-0.439262,3.22064,9.37608,0.96464,5.75994,-1.39726,48.829,7,0,0,0
0,1405702177,342407,-8.3315,18.7192,-25.2967,32.5537,-8.7763,-0.412215,3.19828,9.34999,1.01365,5.05676,-1.45562,48.6882,7,0,0,0
0,1405702178,343414,-7.96527,19.1302,-25.0779,32.5317,-8.80303,-0.410013,3.21923,9.38216,1.16131,5.36655,-2.30456,48.9251,6,0,0,0
0,1405702179,344419,-8.0032,18.7339,-25.5008,32.639,-8.76823,-0.389952,3.20669,9.34435,0.895993,4.09215,-0.356248,48.732,7,0,0,0
0,1405702180,345423,-7.88487,18.9971,-25.2604,32.5753,-8.76398,-0.43684,3.23322,9.35157,2.10829,6.53506,-0.0485276,48.88,6,0,0,0
0,1405702181,346425,-8.22187,18.8037,-25.2994,32.5766,-8.80019,-0.44368,3.22703,9.38371,2.38835,3.66246,-2.12094,48.9559,2,0,0,0
0,1405702182,347427,-8.39518,18.7886,-25.2584,32.5803,-8.79385,-0.43509,3.20821,9.37089,3.11594,4.06115,-2.1434,48.8995,6,0,0,0
0,1405702183,348432,-8.30153,19.0207,-25.2205,32.6616,-8.78086,-0.44407,3.19214,9.35364,2.90487,4.94638,-1.62511,48.9848,6,0,0,0
0,1405702184,349438,-8.24372,18.8239,-25.3067,32.5995,-8.79084,-0.40114,3.20397,9.3651,0.885561,4.72595,-1.21972,48.8463,5,0,0,0
0,1405702185,350444,-8.12037,18.8746,-25.3133,32.603,-8.76896,-0.426193,3.19202,9.34159,0.552834,5.49885,-2.15906,48.851,6,0,0,0
0,1405702186,351447,-8.09295,18.9131,-25.4552,32.7287,-8.76316,-0.433353,3.19211,9.3365,1.27718,5.33659,-0.65708,48.809,4,0,0,0
0,1405702187,352452,-8.18014,18.8408,-25.2332,32.5362,-8.79017,-0.427546,3.19569,9.36281,0.87511,5.42563,-1.15288,48.8826,6,0,0,0
0,1405702188,353462,-8.13873,18.6604,-25.3095,32.4811,-8.78259,-0.424724,3.22259,9.3648,1.61303,4.74028,-1.28189,48.8617,7,0,0,0
0,1405702189,354464,-8.2767,18.6635,-25.3996,32.5879,-8.81213,-0.437873,3.20544,9.38723,1.87937,3.78817,-1.76674,48.8585,7,0,0,0
0,1405702190,355476,-8.26255,19.0219,-25.47,32.8455,-8.79177,-0.449961,3.2087,9.36982,1.30732,5.14854,-1.07296,48.9514,7,0,0,0
0,1405702191,356483,-8.40091,18.5301,-25.3905,32.5364,-8.76812,-0.467634,3.21844,9.35185,2.1332,5.37789,-0.599794,48.9258,6,0,0,0
0,1405702192,357485,-8.28498,18.9775,-25.4556,32.8142,-8.79363,-0.427925,3.18529,9.36254,1.68499,5.98221,-1.28842,48.8374,7,0,0,0
0,1405702193,358495,-8.24616,18.8526,-25.329,32.634,-8.77479,-0.432781,3.19309,9.34774,3.36133,4.94664,-0.795808,48.7015,7,0,0,0
0,1405702194,359506,-8.07783,19.2292,-25.001,32.5586,-8.79458,-0.429299,3.20202,9.3692,1.16246,5.25521,-1.38073,48.863,6,0,0,0
0,1405702195,360514,-8.03378,18.9806,-25.4971,32.7858,-8.77595,-0.436906,3.21754,9.35739,3.21752,5.38545,-0.308132,48.8386,6,0,0,0
0,1405702196,361524,-8.19486,18.9661,-24.7139,32.2125,-8.77672,-0.439778,3.22139,9.35957,1.8046,4.86275,-0.755165,48.8992,7,0,0,0
0,1405702197,362530,-8.05167,19.1569,-25.1266,32.6062,-8.81298,-0.411811,3.20626,9.38713,2.81061,4.49508,-1.77331,48.817,7,0,0,0
0,1405702198,363539,-7.94318,19.1553,-25.4223,32.8072,-8.76576,-0.436222,3.20862,9.34474,1.90791,4.93588,-1.01849,48.8027,6,0,0,0
0,1405702199,364541,-8.2317,18.6915,-25.3721,32.5711,-8.78165,-0.438522,3.235,9.36882,2.53827,5.29744,-1.17149,48.9538,6,0,0,0
0,1405702200,365554,-8.30037,19.024,-25.4934,32.8743,-8.7831,-0.42905,3.20809,9.36049,2.11407,5.46392,-0.856048,48.8929,7,0,0,0
0,1405702201,366558,-8.31354,19.032,-25.3581,32.7775,-8.78248,-0.416237,3.19395,9.3545,2.01278,4.32604,-0.336444,48.8327,6,0,0,0
0,1405702202,367560,-8.39536,18.8538,-25.313,32.6603,-8.77219,-0.443353,3.19015,9.34478,2.8336,4.92784,-1.34613,48.8054,7,0,0,0
0,1405702203,368571,-7.97617,18.7157,-25.3827,32.5296,-8.78616,-0.423286,3.20206,9.36104,0.560485,4.87294,-1.40231,48.8678,7,0,0,0
0,1405702204,369575,-7.96252,18.9224,-25.0793,32.4104,-8.78448,-0.434553,3.19725,9.35833,1.49909,5.83958,-0.835923,48.7912,7,0,0,0
0,1405702205,370576,-8.25638,19.0808,-25.3497,32.7849,-8.80382,-0.408631,3.19326,9.37396,2.54716,4.53554,-1.36715,48.8837,6,0,0,0
0,1405702206,371585,-7.99427,18.7652,-25.4284,32.5982,-8.85748,-0.290716,3.22959,9.43238,1.99575,5.22903,-0.830275,48.842,6,0,0,0
0,1405702207,372587,-8.32856,18.9049,-25.4418,32.7727,-8.79357,-0.419444,3.28438,9.39627,2.48961,5.7023,-1.4066,48.7678,7,0,0,0
0,1405702208,373589,-8.11052,18.8841,-25.4425,32.7064,-8.79032,-0.422839,3.20316,9.36529,1.95376,4.78942,-0.905363,48.78,6,0,0,0
0,1405702209,374591,-8.14703,18.8345,-25.5721,32.7879,-8.80669,-0.439454,3.22575,9.38916,0.352851,5.08091,-1.2353,48.7656,6,0,0,0
0,1405702210,375596,-8.1401,18.7002,-25.0484,32.3014,-8.77823,-0.442811,3.20625,9.35593,1.24391,5.11242,-1.2096,48.7768,7,0,0,0
0,1405702211,376600,-7.85647,19.0711,-25.38,32.7043,-8.79699,-0.470994,3.22263,9.38053,0.495333,5.23419,-0.873898,48.6983,7,0,0,0
0,1405702212,377603,-8.09206,18.6787,-25.4348,32.5776,-8.78098,-0.44038,3.18649,9.35165,0.4412,5.30478,-0.465995,48.7422,6,0,0,0
0,1405702213,378614,-8.29653,19.1189,-25.1935,32.6967,-8.80206,-0.3293,3.2199,9.3783,2.61031,5.05421,-1.30692,48.82,6,0,0,0
0,1405702214,379619,-8.36774,18.9988,-25.139,32.6028,-8.78876,-0.429219,3.2092,9.36619,3.5481,4.33773,-1.6205,48.7769,7,0,0,0
0,1405702215,380633,-8.41795,18.5044,-25.1346,32.3268,-8.78135,-0.421109,3.18575,9.35086,0.69771,6.29237,-0.377076,48.8043,7,0,0,0
0,1405702216,381634,-8.26706,18.7608,-25.8004,32.9541,-8.79053,-0.444634,3.21009,9.36887,3.02911,6.14908,-0.680439,48.8321,7,0,0,0
0,1405702217,382637,-8.36804,19.0072,-25.2819,32.718,-8.77569,-0.450006,3.20115,9.35214,1.03606,4.71539,-1.50593,48.7724,7,0,0,0
0,1405702218,383638,-8.2005,18.8341,-25.4437,32.701,-8.79276,-0.452198,3.19199,9.36514,1.68031,5.04903,-0.994928,48.7192,6,0,0,0
0,1405702219,384644,-8.40031,18.6976,-25.3616,32.6094,-8.79371,-0.434385,3.19998,9.36792,1.52032,5.48817,0.127843,48.7721,7,0,0,0
0,1405702220,385654,-7.97257,18.786,-25.4286,32.6051,-8.779,-0.423574,3.21461,9.35863,3.38762,5.03795,-1.46318,48.7871,8,0,0,0
0,1405702221,386658,-8.08327,18.8894,-25.2051,32.5184,-8.77361,-0.443993,3.20203,9.3502,3.57531,4.29642,0.0296085,48.7913,7,0,0,0
0,1405702222,387661,-8.19299,18.7385,-25.2795,32.5163,-8.7868,-0.424987,3.19382,9.3589,1.70182,5.63253,-1.7781,48.6944,7,0,0,0
0,1405702223,388670,-8.33843,18.5631,-25.5091,32.6317,-8.78228,-0.40945,3.21813,9.36229,2.39793,4.43498,-1.05504,48.722,6,0,0,0
0,1405702224,389671,-8.10201,18.9128,-25.3853,32.6764,-8.77147,-0.474013,3.21683,9.35475,2.53224,4.62202,-1.56163,48.6665,6,0,0,0
0,1405702225,390672,-7.95517,18.8524,-25.1799,32.4457,-8.73916,-0.445896,3.19872,9.31684,1.28442,4.23339,-0.00824505,48.7461,6,0,0,0
0,1405702226,391673,-8.15683,18.9066,-25.3249,32.6396,-8.78479,-0.436897,3.2034,9.36083,4.1385,5.37795,-1.44936,48.6824,6,0,0,0
0,1405702227,392679,-8.27542,18.9127,-25.4024,32.733,-8.78452,-0.442469,3.1756,9.35137,2.6834,5.77533,-0.841979,48.6558,6,0,0,0
0,1405702228,393687,-8.38346,18.8261,-25.3451,32.6662,-8.78112,-0.442046,3.22271,9.36426,2.1968,4.85908,-1.41063,48.6128,6,0,0,0
0,1405702229,394691,-8.21442,18.8301,-25.2596,32.5591,-8.77047,-0.420729,3.20996,9.3489,1.41882,4.84298,-1.25152,48.6067,6,0,0,0
0,1405702230,395700,-8.00627,18.786,-25.4183,32.6053,-8.7806,-0.434435,3.22803,9.36525,2.66127,5.25202,-2.06628,48.7294,5,0,0,0
0,1405702231,396708,-8.0036,18.927,-25.5741,32.8074,-8.78235,-0.42082,3.21935,9.36327,2.46996,3.20898,-0.604615,48.7354,6,0,0,0
0,1405702232,397716,-7.93223,18.7374,-25.2562,32.4328,-8.79374,-0.43128,3.18702,9.36338,1.34013,5.05636,-0.779621,48.6656,6,0,0,0
0,1405702233,398723,-8.09596,18.7993,-25.5804,32.7615,-8.78119,-0.416179,3.1972,9.35439,3.00347,4.46736,-0.881085,48.7807,5,0,0,0
0,1405702234,399726,-8.14887,18.7727,-25.3934,32.6136,-8.78245,-0.419343,3.19116,9.35365,2.50404,4.63927,-1.43917,48.7763,6,0,0,0
0,1405702235,400733,-8.40489,18.7346,-25.3828,32.6484,-8.78765,-0.443149,3.18255,9.3567,3.28211,4.94255,-1.33907,48.7511,5,0,0,0
0,1405702236,401736,-8.29947,18.7251,-25.2056,32.4782,-8.77461,-0.428016,3.19114,9.34668,1.51764,4.33675,-0.761288,48.7499,6,0,0,0
0,1405702237,402745,-8.35473,18.9517,-25.4629,32.8227,-8.77994,-0.410148,3.22065,9.36099,1.23224,5.74468,-1.94002,48.8041,7,0,0,0
0,1405702238,403750,-8.04456,19.1547,-25.2759,32.7183,-8.79465,-0.419218,3.19916,9.36783,1.05749,4.87705,-0.599577,48.7644,8,0,0,0
0,1405702239,404752,-8.34592,18.6477,-25.3627,32.5677,-8.78089,-0.41799,3.20261,9.35604,0.448123,5.56136,-1.40587,48.872,7,0,0,0
0,1405702240,405753,-8.22384,18.7309,-25.5754,32.7503,-8.78275,-0.411439,3.24478,9.37201,0.254081,5.93112,-2.34196,48.7603,5,0,0,0
0,1405702241,406755,-8.19708,18.96,-25.151,32.5461,-8.77639,-0.420912,3.19721,9.3501,1.32928,5.81847,-1.48737,48.8388,6,0,0,0
0,1405702242,407759,-8.10622,19.0847,-25.3306,32.7349,-8.76834,-0.442214,3.20386,9.3458,1.32907,4.38237,-1.99029,48.7261,7,0,0,0
0,1405702243,408769,-8.30871,18.9138,-25.4151,32.752,-8.77331,-0.431712,3.19378,9.34653,1.39151,4.98671,-2.08187,48.7878,6,0,0,0
0,1405702244,409770,-8.10831,18.6606,-25.6314,32.7251,-8.78936,-0.430429,3.17606,9.3555,1.79289,4.29978,-2.82786,48.9069,7,0,0,0
0,1405702245,410777,-8.25303,18.6883,-25.4501,32.6354,-8.80228,-0.387933,3.19092,9.37083,2.47614,5.03922,0.0866926,48.7609,6,0,0,0
0,1405702246,411785,-8.23184,18.8919,-25.4191,32.723,-8.78268,-0.432536,3.20974,9.36082,3.00633,4.48935,-0.767244,48.7574,7,0,0,0
0,1405702247,412786,-8.3808,18.6722,-25.3548,32.5846,-8.76854,-0.440304,3.20907,9.34768,2.82168,4.19874,-0.913484,48.6661,7,0,0,0
0,1405702248,413796,-8.38916,18.8204,-25.1885,32.543,-8.78179,-0.435515,3.19872,9.35635,1.86954,5.04094,-0.447825,48.7381,7,0,0,0
0,1405702249,414797,-8.22161,18.7199,-25.7094,32.8482,-8.81698,-0.426153,3.23293,9.40067,2.80721,4.86928,-2.29138,48.7121,7,0,0,0
0,1405702250,415803,-7.99643,18.9429,-25.3876,32.6697,-8.79792,-0.435154,3.22751,9.38135,1.98888,4.54102,-0.20698,48.75,6,0,0,0
0,1405702251,416812,-8.26403,18.6897,-25.4313,32.6244,-8.80048,-0.424516,3.20814,9.37661,1.0234,4.70421,-1.939,48.7971,7,0,0,0
0,1405702252,417816,-8.03217,19.0202,-25.5609,32.8579,-8.75519,-0.48526,3.18597,9.32948,0.717395,4.39758,-1.27199,48.6809,7,0,0,0
0,1405702253,418819,-7.96249,18.6882,-25.3476,32.483,-8.786,-0.431584,3.20138,9.36103,2.76526,5.61841,-2.0113,48.6021,7,0,0,0
0,1405702254,419824,-8.09887,18.6488,-25.6116,32.7005,-8.77579,-0.443351,3.22214,9.35913,1.1809,5.62104,-0.79033,48.777,7,0,0,0
0,1405702255,420830,-8.45075,18.6812,-25.7662,32.9287,-8.77947,-0.396933,3.18581,9.34805,2.55578,4.16216,-1.92352,48.8649,6,0,0,0
0,1405702256,421833,-8.3733,18.8786,-25.3362,32.6869,-8.7783,-0.429344,3.20904,9.35632,0.837537,5.49796,-1.29921,48.7147,6,0,0,0
0,1405702257,422839,-8.29913,18.7962,-25.4558,32.7135,-8.80193,-0.436106,3.20038,9.37585,1.77647,4.79071,-1.27152,48.9295,7,0,0,0
0,1405702258,423848,-8.16024,18.8016,-25.3967,32.6356,-8.78608,-0.452914,3.23774,9.37461,2.26214,4.85038,-1.81107,48.6906,7,0,0,0
0,1405702259,424850,-8.29814,19.15,-25.2597,32.7664,-8.79063,-0.413973,3.23169,9.37499,3.66613,5.29495,-0.896973,48.5971,7,0,0,0
0,1405702260,425856,-8.25911,18.7865,-25.6782,32.8712,-8.8094,-0.426321,3.23234,9.39337,3.35397,5.73629,-0.983449,48.7934,6,0,0,0
0,1405702261,426860,-8.36621,18.733,-25.476,32.71,-8.76744,-0.419924,3.19166,9.33976,2.88809,3.57226,-0.92323,48.7441,6,0,0,0
0,1405702262,427867,-8.19193,18.9889,-25.3085,32.6835,-8.7849,-0.420043,3.22753,9.36845,1.9192,4.49651,-1.78028,48.7096,7,0,0,0
0,1405702263,428873,-8.16493,18.8743,-25.3008,32.6042,-8.78184,-0.456428,3.2122,9.36201,0.0397512,6.03215,-1.07242,48.588,8,0,0,0
0,1405702264,429881,-8.21919,18.7677,-25.6198,32.8048,-8.78451,-0.435712,3.19201,9.35663,1.28499,4.81501,-1.17587,48.6881,7,0,0,0
0,1405702265,430887,-8.11399,19.0763,-25.4468,32.822,-8.79036,-0.433788,3.20826,9.36758,2.2869,4.90168,-1.98404,48.7607,6,0,0,0
0,1405702266,431897,-8.25208,18.9953,-25.4766,32.8325,-8.76953,-0.482017,3.18549,9.34261,-0.0316664,5.72131,-1.95963,48.7568,7,0,0,0
0,1405702267,432909,-8.05504,19.1014,-25.3618,32.7561,-8.78548,-0.445815,3.2316,9.37159,2.7252,4.64454,-0.699243,48.7107,7,0,0,0
0,1405702268,433910,-8.08398,18.7015,-25.7428,32.8297,-8.77897,-0.38958,3.18971,9.3486,3.20831,5.44795,-1.77377,48.7207,6,0,0,0
0,1405702269,434916,-8.11122,18.7011,-25.3219,32.5073,-8.75913,-0.470912,3.22298,9.34514,2.21109,5.5082,-0.27276,48.7083,6,0,0,0
0,1405702270,435923,-8.30487,18.8243,-25.3104,32.6181,-8.7808,-0.441881,3.22044,9.36317,0.803982,5.75833,0.541051,48.712,6,0,0,0
0,1405702271,436932,-8.24707,18.6668,-25.6761,32.7982,-8.78938,-0.41699,3.18536,9.35808,1.40735,4.84748,-1.16423,48.685,6,0,0,0
0,1405702272,437935,-8.29029,18.4291,-25.4252,32.4777,-8.78096,-0.420502,3.19343,9.35308,1.00483,5.15304,-1.75648,48.7257,5,0,0,0
0,1405702273,438943,-8.16183,18.8948,-25.5614,32.8179,-8.76874,-0.430072,3.18686,9.3398,3.02356,4.18126,-0.843878,48.8031,7,0,0,0
0,1405702274,439946,-8.44682,18.623,-25.5495,32.7253,-8.79928,-0.448768,3.2079,9.37653,2.91493,5.55478,-0.995313,48.6371,5,0,0,0
0,1405702275,440948,-8.20543,18.9518,-25.7946,33.0433,-8.78766,-0.415058,3.19699,9.36034,2.14035,4.43721,-2.9032,48.7598,7,0,0,0
0,1405702276,441953,-7.90263,18.8465,-25.4599,32.6473,-8.79592,-0.434521,3.21714,9.37588,1.86015,5.10386,-1.597,48.6777,6,0,0,0
0,1405702277,442955,-8.32947,18.752,-25.4917,32.7238,-8.78948,-0.418591,3.20106,9.3636,0.50814,5.30581,-1.74468,48.8377,6,0,0,0
0,1405702278,443961,-8.2252,18.9474,-25.6677,32.9468,-8.7676,-0.443024,3.20885,9.34686,1.03814,5.33213,-1.94048,48.8295,6,0,0,0
0,1405702279,444966,-8.21476,18.9441,-25.6149,32.9011,-8.78212,-0.428608,3.22534,9.36548,1.68762,4.77325,-0.379,48.8344,6,0,0,0
0,1405702280,445970,-8.12075,19.0701,-24.8431,32.3542,-8.8184,-0.435215,3.19926,9.39089,-0.445893,4.10343,-1.42588,48.791,5,0,0,0
0,1405702281,446983,-8.29845,18.8687,-25.2538,32.5983,-8.79675,-0.428459,3.18899,9.36676,1.93445,5.09281,-0.0888398,48.8607,5,0,0,0
0,1405702282,447984,-8.39113,18.5111,-25.3135,32.463,-8.78421,-0.46845,3.21014,9.36412,2.43897,4.7414,-1.21492,48.8121,5,0,0,0
0,1405702283,448992,-8.03631,18.9335,-25.304,32.6091,-8.78734,-0.439893,3.19982,9.36214,1.86979,5.4166,-0.972914,48.6921,6,0,0,0
0,1405702284,449993,-8.38522,18.6424,-25.4953,32.6781,-8.76819,-0.433843,3.20305,9.34499,1.26395,5.23643,-0.41821,48.7043,5,0,0,0
0,1405702286,451000,-8.17514,19.0072,-25.3148,32.6948,-8.79644,-0.438995,3.20463,9.37229,1.97808,6.79982,-2.14499,48.7069,7,0,0,0
0,1405702287,452014,-8.25319,18.75,-25.4616,32.6798,-8.78106,-0.439723,3.22663,9.36544,0.890546,4.33589,-1.03771,48.7807,6,0,0,0
0,1405702288,453019,-8.28099,18.843,-25.3258,32.6348,-8.78111,-0.419929,3.23017,9.3658,1.33794,4.2349,-1.14646,48.6926,6,0,0,0
0,1405702289,454024,-8.33191,18.8423,-25.3516,32.6674,-8.7821,-0.399752,3.22827,9.36519,1.13055,5.16948,-0.544232,48.7507,7,0,0,0
0,1405702290,455028,-8.3239,18.7381,-25.2945,32.5609,-8.78967,-0.435259,3.20473,9.36579,0.591328,5.26743,-1.28623,48.7235,7,0,0,0
0,1405702291,456037,-8.2245,18.9003,-25.288,32.6244,-8.76304,-0.434865,3.20056,9.33936,1.40772,3.87984,-1.72394,48.7769,7,0,0,0
0,1405702292,457043,-8.31467,18.8043,-25.4242,32.6975,-8.77877,-0.406881,3.25149,9.3704,1.49686,5.1585,-0.978322,48.7328,6,0,0,0
0,1405702293,458046,-8.2584,18.9322,-25.5623,32.8643,-8.77781,-0.428956,3.20642,9.35495,2.92029,4.76048,-2.79373,48.7674,5,0,0,0
0,1405702294,459048,-8.04189,19.0148,-25.4663,32.7837,-8.75575,-0.42987,3.21246,9.33638,0.824315,4.81961,-2.05505,48.8805,7,0,0,0
0,1405702295,460050,-8.08752,19.0308,-25.4783,32.8134,-8.77494,-0.447117,3.21972,9.35768,2.3033,5.80986,-1.02232,48.7603,7,0,0,0
0,1405702296,461060,-8.30303,18.6615,-25.526,32.6921,-8.77373,-0.432168,3.21175,9.3531,1.99088,5.22359,-0.853234,48.7645,7,0,0,0
0,1405702297,462067,-8.36599,18.8526,-25.5083,32.8037,-8.76803,-0.443362,3.21675,9.35,2.33954,5.58182,-1.40173,48.692,7,0,0,0
0,1405702298,463072,-8.35714,18.6172,-25.2891,32.4958,-8.77375,-0.44552,3.19422,9.34774,0.499482,5.00732,-1.70142,48.7294,6,0,0,0
0,1405702299,464074,-8.12251,19.0059,-25.4113,32.7556,-8.78407,-0.439646,3.19837,9.35857,2.18922,5.21986,-1.44261,48.7771,7,0,0,0
0,1405702300,465091,-8.25253,18.6389,-25.321,32.5064,-8.78738,-0.434076,3.22492,9.37052,0.158995,3.29443,-0.859105,48.8575,6,0,0,0
0,1405702301,466098,-8.23369,18.6324,-25.6067,32.7209,-8.7915,-0.430441,3.19017,9.36231,1.46491,5.4509,-2.24518,48.764,6,0,0,0
0,1405702302,467103,-8.13696,18.9122,-25.3602,32.6653,-8.78659,-0.41592,3.18873,9.35656,1.02927,4.31341,-0.61079,48.842,7,0,0,0
0,1405702303,468104,-8.21449,18.7383,-25.1825,32.4463,-8.78099,-0.432671,3.209,9.35899,-0.282159,4.6896,-1.84989,48.8145,7,0,0,0
0,1405702304,469112,-8.05141,18.5417,-25.394,32.4573,-8.77948,-0.435269,3.21705,9.36046,0.28354,5.31328,-2.47412,48.9466,6,0,0,0
0,1405702305,470121,-8.20623,18.6335,-25.3331,32.501,-8.79391,-0.404357,3.22557,9.37554,2.21602,5.2085,-1.48108,48.8429,7,0,0,0
0,1405702306,471122,-8.32525,18.947,-25.1913,32.6022,-8.76464,-0.434086,3.20264,9.34153,1.2065,4.15479,-1.79968,48.8846,7,0,0,0
0,1405702307,472136,-8.02078,18.9725,-25.4072,32.708,-8.79331,-0.460179,3.19597,9.3674,1.77393,5.11705,-1.68766,48.8086,6,0,0,0
0,1405702308,473139,-8.02816,18.8035,-25.3857,32.5954,-8.78647,-0.44861,3.18463,9.35656,0.929711,4.65903,-1.53559,48.8102,6,0,0,0
0,1405702309,474148,-8.27561,18.9329,-25.4468,32.7792,-8.79371,-0.420797,3.23041,9.37773,2.9181,3.72287,-1.48497,48.8707,8,0,0,0
0,1405702310,475156,-8.1597,18.7343,-25.4189,32.6141,-8.76964,-0.443923,3.18669,9.34123,0.668286,4.21743,-0.504566,48.832,6,0,0,0
0,1405702311,476157,-8.14416,18.8155,-25.6156,32.8102,-8.7859,-0.412632,3.21545,9.3649,2.97301,5.75161,-1.49559,48.8723,7,0,0,0
0,1405702312,477166,-8.12975,18.9986,-25.4848,32.8103,-8.77836,-0.409721,3.1915,9.3495,-0.25384,4.34102,-0.803024,48.7723,7,0,0,0
0,1405702313,478171,-8.4294,18.8169,-25.4229,32.7331,-8.79025,-0.431427,3.20994,9.36795,0.732457,5.30768,-0.805509,48.9023,6,0,0,0
0,1405702314,479174,-8.21694,18.7599,-25.1663,32.4468,-8.78244,-0.432402,3.22941,9.36735,-0.304232,4.52664,-1.14697,48.8828,7,0,0,0
0,1405702315,480177,-8.45597,18.9428,-25.2608,32.687,-8.77388,-0.438805,3.19483,9.34775,1.04005,5.70199,-0.666281,48.9065,6,0,0,0
0,1405702316,481185,-8.13211,18.964,-25.3341,32.6739,-8.78722,-0.441936,3.21857,9.36855,2.71557,4.32577,-0.744729,48.8898,7,0,0,0
0,1405702317,482197,-8.3827,18.5634,-25.5683,32.6896,-8.78695,-0.459626,3.25551,9.3819,1.90569,5.54727,-1.53841,48.8833,6,0,0,0
0,1405702318,483201,-8.18999,18.9366,-25.4653,32.7742,-8.77833,-0.440307,3.2131,9.35826,0.337978,5.63772,-1.15161,48.82,6,0,0,0
0,1405702319,484206,-8.24278,18.9841,-25.3717,32.7424,-8.76985,-0.441656,3.20666,9.34816,2.73224,4.40015,-1.37153,48.8369,7,0,0,0
0,1405702320,485213,-8.24293,18.969,-25.5181,32.8473,-8.77663,-0.417856,3.21983,9.35795,0.800044,5.05721,-2.15208,48.8077,5,0,0,0
0,1405702321,486218,-8.0215,18.8831,-25.4216,32.6676,-8.76222,-0.432049,3.21921,9.34487,0.522198,5.62736,-0.24478,48.7999,6,0,0,0
0,1405702322,487224,-8.12789,19.304,-25.3203,32.8607,-8.78826,-0.443581,3.18972,9.35973,3.02434,5.60884,-1.10712,48.939,6,0,0,0
0,1405702323,488226,-8.42106,19.0609,-25.2096,32.7072,-8.77579,-0.431724,3.17946,9.34397,0.764734,5.03145,-1.28441,48.9415,7,0,0,0
0,1405702324,489231,-8.05874,19.241,-24.9679,32.5355,-8.78122,-0.423931,3.21818,9.36195,2.13613,5.31838,-2.04791,48.7999,6,0,0,0
0,1405702325,490244,-8.41566,18.946,-25.3444,32.7431,-8.7945,-0.418674,3.17467,9.35933,2.40145,4.38314,-1.75205,48.7624,6,0,0,0
0,1405702326,491247,-8.16549,19.133,-25.4161,32.8439,-8.78032,-0.410248,3.19573,9.35281,0.565954,5.47492,-1.41183,48.9526,6,0,0,0
0,1405702327,492253,-8.36632,18.6219,-25.5823,32.7295,-8.77566,-0.424943,3.21082,9.35426,0.466375,6.17265,-1.18394,48.9053,5,0,0,0
0,1405702328,493254,-8.19092,18.6004,-25.4255,32.5503,-8.77428,-0.421684,3.18277,9.34323,1.71368,5.43145,-1.0676,48.8649,6,0,0,0
0,1405702329,494255,-8.20989,18.879,-25.6563,32.8948,-8.79294,-0.430879,3.204,9.36841,2.19628,4.10765,-0.565332,48.8551,6,0,0,0
0,1405702330,495265,-8.17708,18.6812,-25.4423,32.6062,-8.78567,-0.433873,3.20037,9.36048,3.47333,4.79973,-0.916482,48.8953,5,0,0,0
0,1405702331,496277,-8.43538,18.8133,-25.1567,32.5262,-8.7882,-0.434022,3.20694,9.36511,1.85094,5.23419,-1.73213,48.8981,7,0,0,0
0,1405702332,497284,-8.28548,18.5849,-25.6191,32.7167,-8.78166,-0.318899,3.21139,9.35587,1.06699,5.37638,-0.834736,48.9652,5,0,0,0
0,1405702333,498291,-8.31717,19.0375,-25.3538,32.7783,-8.78529,-0.333471,3.19729,9.35495,0.414106,4.75329,-1.314,48.8239,7,0,0,0
0,1405702334,499300,-8.31965,18.8971,-25.4607,32.7806,-8.78372,-0.420421,3.18088,9.35139,1.04352,5.86856,-1.58537,48.916,7,0,0,0
0,1405702335,500302,-8.23339,18.9411,-25.5278,32.8363,-8.78312,-0.434383,3.19453,9.35611,2.02105,4.53235,-2.01736,48.93,7,0,0,0
0,1405702336,501304,-8.14309,19.0111,-25.7514,33.0282,-8.79535,-0.42818,3.18845,9.36524,2.88964,5.07923,-0.0156609,48.9851,7,0,0,0
0,1405702337,502306,-8.35326,18.7316,-25.3362,32.5972,-8.78964,-0.435217,3.21123,9.36799,2.04067,5.54502,-0.589557,48.98,7,0,0,0
0,1405702338,503310,-8.12404,18.9048,-25.447,32.7252,-8.78395,-0.431859,3.19265,9.35614,2.66002,3.98969,-1.49857,48.9812,6,0,0,0
0,1405702339,504317,-8.04702,18.7539,-25.651,32.7786,-8.78089,-0.425843,3.21747,9.36149,1.19618,5.21909,-0.452077,48.8806,7,0,0,0
0,1405702340,505329,-8.15612,18.8159,-25.3377,32.5969,-8.77658,-0.435611,3.21729,9.35783,2.81815,4.19118,-0.959928,49.0645,5,0,0,0
0,1405702341,506333,-8.51566,18.7483,-25.4102,32.7061,-8.78299,-0.424805,3.21779,9.36352,1.51623,6.96301,-0.793162,48.9445,6,0,0,0
0,1405702342,507349,-8.28419,18.4556,-25.3011,32.3942,-8.78876,-0.44088,3.19927,9.36333,1.12728,4.82243,-0.625523,48.8952,6,0,0,0
0,1405702343,508357,-8.26535,18.8127,-25.3177,32.607,-8.81199,-0.435101,3.18359,9.37954,3.77844,4.6905,0.302263,48.9968,7,0,0,0
0,1405702344,509363,-8.23856,19.0155,-25.385,32.7698,-8.78376,-0.433606,3.19307,9.35618,2.7636,5.75931,-0.573935,48.9494,7,0,0,0
0,1405702345,510366,-8.42742,18.9838,-25.658,33.0113,-8.7668,-0.425964,3.18222,9.33621,4.09232,3.42409,-1.36216,48.9082,6,0,0,0
0,1405702346,511372,-8.15725,19.0487,-25.3599,32.7493,-8.76472,-0.443691,3.18186,9.33495,2.10194,5.19742,-0.631248,48.8703,7,0,0,0
0,1405702347,512374,-8.5539,18.6743,-25.2611,32.558,-8.77929,-0.428947,3.19196,9.3514,2.7859,4.97979,-0.888269,48.9467,7,0,0,0
0,1405702348,513380,-8.27207,18.9802,-25.1206,32.5534,-8.78557,-0.421551,3.19444,9.3578,3.12177,5.25368,-1.0494,48.9441,6,0,0,0
0,1405702349,514385,-8.39131,18.7609,-25.4787,32.7345,-8.78531,-0.436995,3.23717,9.37293,2.69561,4.70182,-1.70087,48.8616,7,0,0,0
0,1405702350,515393,-8.27697,18.695,-25.1889,32.4422,-8.79821,-0.425934,3.19746,9.3709,2.74559,5.23624,-0.708636,48.8732,6,0,0,0
0,1405702351,516398,-8.21525,18.914,-25.4546,32.7592,-8.78681,-0.441484,3.20378,9.36307,0.142479,5.80339,-0.420039,48.9284,7,0,0,0
0,1405702352,517403,-8.50004,18.7933,-25.2948,32.6384,-8.78166,-0.428528,3.22121,9.36362,1.19068,5.20977,-0.0999669,48.9369,6,0,0,0
0,1405702353,518410,-8.21353,18.8162,-25.3222,32.5995,-8.77672,-0.436483,3.20154,9.35261,3.33599,4.14663,-0.645615,48.9367,7,0,0,0
0,1405702354,519415,-8.31548,18.8593,-25.6567,32.9103,-8.77337,-0.448866,3.18767,9.3453,2.212,5.63437,-0.497461,48.8939,7,0,0,0
0,1405702355,520427,-8.35814,18.9615,-25.3394,32.7335,-8.77423,-0.438262,3.2074,9.35236,1.49121,4.10724,-0.667034,48.9079,6,0,0,0
0,1405702356,521432,-8.20464,18.7636,-25.3449,32.5845,-8.79014,-0.422723,3.20025,9.36413,1.06429,3.5307,-0.915136,49.0123,7,0,0,0
0,1405702357,522437,-8.11764,18.7709,-25.5509,32.7275,-8.77716,-0.439873,3.21232,9.35687,1.13865,4.29697,-0.251428,48.9262,6,0,0,0
0,1405702358,523438,-8.3676,18.6655,-25.3777,32.5952,-8.78589,-0.43712,3.20479,9.36235,0.791526,5.16718,-1.08383,48.9485,6,0,0,0
0,1405702359,524439,-8.1231,19.0182,-25.5371,32.8607,-8.78552,-0.421989,3.22345,9.36771,1.6195,5.06497,-1.46187,49.0465,7,0,0,0
0,1405702360,525445,-8.27231,18.7389,-25.4186,32.6448,-8.78796,-0.451083,3.17345,9.35428,2.5699,4.82756,-1.51585,49.016,7,0,0,0
0,1405702361,526448,-8.25848,18.9225,-25.3198,32.6704,-8.78379,-0.415042,3.19966,9.35762,2.71633,4.90165,-1.14263,49.0093,7,0,0,0
0,1405702362,527453,-8.24649,18.7234,-25.2796,32.5212,-8.7756,-0.423524,3.20439,9.35193,3.05394,4.01115,-2.0468,48.9973,5,0,0,0
0,1405702363,528462,-8.40175,18.5792,-25.5323,32.6753,-8.76854,-0.453285,3.19229,9.34256,1.07224,4.92642,-1.0204,48.9698,7,0,0,0
0,1405702364,529470,-8.43517,18.8453,-25.4068,32.7384,-8.79965,-0.425021,3.23009,9.38339,0.897248,5.59135,-2.31261,49.036,7,0,0,0
0,1405702365,530476,-7.87837,19.1263,-25.0059,32.4527,-8.79794,-0.415417,3.2019,9.37169,2.84071,4.65671,-1.65234,48.8974,6,0,0,0
0,1405702366,531482,-8.20419,18.9481,-25.395,32.7299,-8.78716,-0.401573,3.25378,9.37884,1.57697,5.78871,-0.509011,48.9231,6,0,0,0
0,1405702367,532485,-8.05035,19.2003,-25.0343,32.5603,-8.78263,-0.416121,3.19767,9.3559,1.29388,5.73324,-0.747463,49.0317,5,0,0,0
0,1405702368,533488,-8.19061,18.8449,-25.3763,32.6523,-8.78699,-0.412845,3.20575,9.36261,3.03973,5.48638,-0.94238,48.8892,7,0,0,0
0,1405702369,534497,-8.4036,18.6928,-25.5336,32.7415,-8.76569,-0.44447,3.2004,9.34224,2.04519,4.2923,-1.56789,48.9605,7,0,0,0
0,1405702370,535501,-8.18595,18.8096,-25.681,32.8683,-8.79068,-0.420549,3.20905,9.36755,1.1275,3.82699,-0.752413,48.9587,7,0,0,0
0,1405702371,536510,-8.45471,18.6888,-25.2167,32.506,-8.77934,-0.439873,3.18597,9.3499,1.45339,5.36862,-0.185875,48.9422,6,0,0,0
0,1405702372,537512,-8.24689,18.7837,-25.3857,32.6385,-8.8039,-0.441656,3.23096,9.38844,0.918366,4.51379,-1.20042,49.0001,5,0,0,0
0,1405702373,538520,-8.27356,18.7097,-25.5002,32.692,-8.78733,-0.422795,3.20103,9.36176,1.79567,5.81116,-1.06201,48.937,6,0,0,0
0,1405702374,539529,-8.50019,18.8104,-25.2886,32.6435,-8.78238,-0.417975,3.22288,9.3644,1.85148,5.94591,-0.561339,48.918,6,0,0,0
0,1405702375,540537,-8.2942,18.9267,-25.3983,32.7427,-8.82586,-0.391887,3.14236,9.37677,1.9889,5.0803,-0.510193,48.9487,5,0,0,0
0,1405702376,541545,-8.31175,18.8239,-25.502,32.7686,-8.77352,-0.416417,3.19614,9.34683,3.44333,4.2325,-1.7504,48.895,6,0,0,0
0,1405702377,542552,-8.64775,18.5117,-25.2887,32.5114,-8.77574,-0.423766,3.2003,9.35067,1.54087,3.64972,-0.893626,49.0358,4,0,0,0
0,1405702378,543553,-8.31197,18.6736,-25.9407,33.026,-8.78887,-0.413677,3.1965,9.36125,2.52456,4.88914,-1.52256,49.0201,6,0,0,0
0,1405702379,544554,-8.34365,18.6912,-25.0919,32.3818,-8.77895,-0.419052,3.18839,9.34941,1.908,4.08065,-1.98144,49.0219,7,0,0,0
0,1405702380,545559,-8.55325,18.8516,-25.2035,32.6153,-8.79223,-0.410971,3.19065,9.36229,1.68598,5.44821,0.799182,49.0278,7,0,0,0
0,1405702381,546562,-8.06027,18.8234,-25.2768,32.53,-8.79515,-0.439588,3.21871,9.37593,2.23359,5.95454,-0.808598,49.0775,6,0,0,0
0,1405702382,547568,-8.4106,18.6856,-25.5061,32.7177,-8.77764,-0.411475,3.20173,9.3524,1.01394,4.72853,-0.314765,48.9857,6,0,0,0
0,1405702383,548573,-8.16572,19.1286,-25.0183,32.5346,-8.78911,-0.429593,3.18591,9.35858,1.81066,5.49621,-1.2753,49.0106,7,0,0,0
0,1405702384,549582,-8.05904,19.0025,-25.3357,32.6794,-8.78762,-0.441947,3.20853,9.36548,1.63397,5.71821,-2.29358,48.9508,6,0,0,0
0,1405702385,550592,-8.28382,18.8147,-25.7979,32.9871,-8.78654,-0.424497,3.21663,9.36644,1.25854,3.91862,-0.341906,49.0039,6,0,0,0
0,1405702386,551603,-8.36933,18.4332,-25.5261,32.5793,-8.77356,-0.446749,3.18159,9.34331,1.82873,6.79011,-1.03441,48.9888,7,0,0,0
0,1405702387,552606,-8.38719,18.9308,-25.5358,32.8755,-8.79782,-0.430361,3.20481,9.37324,2.43344,6.14967,-1.2309,49.0225,5,0,0,0
0,1405702388,553610,-8.11088,19.0048,-25.4071,32.7489,-8.79895,-0.432782,3.20852,9.37568,0.0433454,5.21928,-1.05842,49.0372,7,0,0,0
0,1405702389,554615,-8.09439,18.7039,-25.246,32.4456,-8.79204,-0.43401,3.22226,9.37397,1.83708,5.20138,-2.15316,49.0583,8,0,0,0
0,1405702390,555625,-8.45037,18.785,-25.4999,32.78,-8.77583,-0.438692,3.19862,9.35088,-1.14528,5.65863,-1.72668,49.0501,6,0,0,0
0,1405702391,556630,-8.15876,18.7001,-25.2593,32.4699,-8.79235,-0.431633,3.21314,9.37102,2.04585,4.77338,-0.363111,49.0595,7,0,0,0
0,1405702392,557634,-8.11252,18.9041,-25.197,32.528,-8.79718,-0.420215,3.21352,9.37516,2.27519,4.13121,-2.00556,49.023,6,0,0,0
0,1405702393,558637,-8.39782,18.7567,-25.5287,32.7727,-8.7918,-0.410549,3.18625,9.36037,2.4057,3.3299,-0.638712,49.0313,7,0,0,0
0,1405702394,559643,-8.20912,18.9978,-25.1124,32.5413,-8.80114,-0.436363,3.19662,9.37384,1.97202,5.01783,-1.00677,48.983,7,0,0,0
0,1405702395,560653,-8.09339,18.945,-25.1519,32.5121,-8.80243,-0.400366,3.19644,9.37338,0.53733,4.91872,-1.95325,49.0376,7,0,0,0
0,1405702396,561655,-8.29624,18.8596,-25.3587,32.6738,-8.78487,-0.430688,3.17609,9.35131,2.58548,5.98344,-2.0683,49.0736,7,0,0,0
0,1405702397,562661,-8.35934,18.7915,-25.5578,32.8054,-8.78602,-0.413699,3.21296,9.36421,1.90904,4.63709,-1.18346,49.0207,5,0,0,0
0,1405702398,563669,-8.21983,18.8337,-25.2049,32.5202,-8.78372,-0.409144,3.19999,9.35741,2.36152,4.84013,-1.77534,48.959,7,0,0,0
0,1405702399,564677,-8.50415,18.6376,-25.4691,32.6857,-8.76859,-0.431027,3.20945,9.34743,2.43974,4.66342,-0.649595,48.8675,6,0,0,0
0,1405702400,565680,-8.18663,19.0834,-25.0061,32.5039,-8.77828,-0.431416,3.22433,9.36166,3.05322,4.93611,-0.963299,48.9467,7,0,0,0
0,1405702401,566694,-8.08964,18.8126,-25.4552,32.6699,-8.7907,-0.485024,3.20833,9.37044,2.94899,5.01542,-0.773599,48.9169,7,0,0,0
0,1405702402,567698,-7.71764,18.9629,-25.0333,32.3392,-8.78563,-0.392648,3.23997,9.37224,3.12408,5.1718,-1.982,49.0505,6,0,0,0
0,1405702403,568702,-8.28672,18.7656,-25.4096,32.6567,-8.78096,-0.428672,3.20727,9.35818,1.28675,5.05876,-1.12033,48.9599,7,0,0,0
0,1405702404,569704,-8.30612,19.0386,-25.0698,32.5569,-8.77287,-0.41364,3.2441,9.36261,0.857106,4.52486,-1.24813,48.8572,6,0,0,0
0,1405702405,570708,-7.97173,18.7575,-25.4473,32.603,-8.78426,-0.414544,3.22593,9.36705,3.30871,6.52925,-1.76898,49.0633,7,0,0,0
0,1405702406,571722,-8.16132,18.9102,-25.3995,32.7007,-8.76844,-0.467319,3.20263,9.3467,1.63627,5.40449,-0.00810609,48.9277,7,0,0,0
0,1405702407,572728,-8.25829,18.8142,-25.4974,32.7459,-8.77306,-0.433911,3.20617,9.35064,1.14311,5.24613,-2.03599,48.9549,6,0,0,0
0,1405702408,573732,-8.22476,18.9138,-25.2883,32.6325,-8.78454,-0.44222,3.18463,9.35444,0.667833,5.34467,-1.38016,49.0796,7,0,0,0
0,1405702409,574734,-8.2071,18.6578,-25.4867,32.635,-8.78583,-0.43052,3.20677,9.36267,2.10337,5.79145,-1.15603,48.9485,6,0,0,0
0,1405702410,575740,-8.39659,18.6068,-25.288,32.4992,-8.7757,-0.457727,3.22917,9.36215,0.13883,5.20266,-1.40072,48.9971,6,0,0,0
0,1405702411,576747,-7.95774,18.8486,-25.252,32.5002,-8.7888,-0.423596,3.21278,9.3672,2.49657,4.7512,-1.21422,48.9532,6,0,0,0
0,1405702412,577752,-8.33662,18.8283,-24.9897,32.3803,-8.77858,-0.429784,3.22218,9.36112,0.851232,4.25745,-1.89982,48.9487,6,0,0,0
0,1405702413,578757,-8.19003,18.7275,-25.2144,32.4587,-8.7705,-0.436669,3.20368,9.34751,3.42219,4.43598,-1.01819,48.9874,7,0,0,0
0,1405702414,579761,-8.04157,18.9371,-25.1435,32.488,-8.79086,-0.434678,3.20633,9.36742,1.67039,4.03466,-1.407,48.9891,6,0,0,0
0,1405702415,580763,-8.36013,18.6911,-25.5478,32.7405,-8.78868,-0.422847,3.17477,9.35408,0.77142,4.97687,-0.522869,48.9767,6,0,0,0
0,1405702416,581772,-8.50533,18.7242,-25.545,32.7945,-8.76721,-0.4487,3.19334,9.34145,2.502,5.42406,-1.13703,49.0175,6,0,0,0
0,1405702417,582780,-8.27895,18.6628,-25.097,32.3527,-8.78118,-0.431761,3.22994,9.36633,0.595638,4.61835,-1.54272,48.8683,6,0,0,0
0,1405702418,583786,-8.34768,18.7689,-25.3353,32.6165,-8.76311,-0.448597,3.20683,9.34222,1.63649,4.68312,-1.38504,48.9861,6,0,0,0
0,1405702419,584790,-8.18012,18.712,-25.5866,32.7373,-8.77414,-0.431296,3.19453,9.34755,1.47505,4.60778,-1.38377,48.9252,6,0,0,0
0,1405702420,585797,-8.15843,18.7972,-25.5473,32.7499,-8.77565,-0.434675,3.19158,9.34811,2.52706,4.51058,-1.9339,49.0685,6,0,0,0
0,1405702421,586807,-8.01107,18.8051,-25.4766,32.6629,-8.79221,-0.427482,3.18565,9.3613,2.13435,5.57511,-1.20371,49.0641,6,0,0,0
0,1405702422,587812,-8.07936,19.0629,-25.048,32.4972,-8.79381,-0.442411,3.23744,9.38125,1.25492,4.97016,-1.19311,49.0439,5,0,0,0
0,1405702423,588820,-8.09794,18.5735,-25.4469,32.5284,-8.78271,-0.432086,3.23573,9.36977,1.94066,3.90746,-1.35243,49.059,7,0,0,0
0,1405702424,589821,-8.36475,18.8942,-25.5397,32.8518,-8.7936,-0.444384,3.21905,9.37482,1.97496,4.68079,-1.77565,49.0408,7,0,0,0
0,1405702425,590831,-8.161,18.8173,-25.1876,32.4824,-8.75961,-0.428607,3.21713,9.34154,3.03566,5.81428,-2.12206,48.9875,7,0,0,0
0,1405702426,591841,-8.17862,18.9517,-25.1454,32.5323,-8.76866,-0.458682,3.20705,9.34799,0.538674,4.41177,-1.66595,48.9914,7,0,0,0
0,1405702427,592847,-8.23881,18.7936,-25.2324,32.5231,-8.76044,-0.451819,3.23791,9.35058,2.1529,4.39911,-0.782921,48.904,7,0,0,0
0,1405702428,593851,-8.0816,18.6117,-25.2902,32.4237,-8.76678,-0.421779,3.18677,9.33755,2.51934,4.9225,-2.02084,49.0181,7,0,0,0
0,1405702429,594859,-8.16422,18.8077,-25.3832,32.6296,-8.77427,-0.421141,3.24748,9.36543,3.7193,5.41068,-0.875975,49.0161,6,0,0,0
0,1405702430,595868,-8.14719,18.7786,-25.3399,32.5749,-8.77997,-0.442859,3.20314,9.3565,0.902473,5.16729,-1.01065,49.0485,7,0,0,0
0,1405702431,596877,-8.26832,18.8677,-25.4938,32.7763,-8.7773,-0.418574,3.20694,9.35418,1.87622,5.28149,-1.8805,49.1608,7,0,0,0
0,1405702432,597883,-8.17231,18.9222,-25.3484,32.6708,-8.76996,-0.459865,3.19314,9.34451,2.37336,5.65112,-2.03381,49.0395,6,0,0,0
0,1405702433,598892,-8.208,18.7116,-25.2243,32.4617,-8.79306,-0.42526,3.22377,9.37505,1.89495,4.94807,-1.0812,49.1544,7,0,0,0
0,1405702434,599893,-8.02177,18.6274,-25.2149,32.3593,-8.75994,-0.463649,3.22939,9.34775,2.34601,5.45358,-2.06232,49.0603,6,0,0,0
0,1405702435,600898,-8.32304,18.8743,-25.4232,32.7392,-8.78665,-0.42496,3.2184,9.36717,3.20642,4.40593,-0.901722,49.0413,6,0,0,0
0,1405702436,601906,-8.0511,18.8271,-25.2841,32.5356,-8.79019,-0.429729,3.21051,9.36801,-0.1673,5.81416,-0.973715,48.9605,7,0,0,0
0,1405702437,602915,-8.17809,18.78,-25.4307,32.6541,-8.76261,-0.430876,3.19912,9.33827,4.24002,5.2074,-2.35255,49.0792,6,0,0,0
0,1405702438,603923,-8.14565,18.9811,-25.2838,32.6482,-8.77578,-0.423534,3.21795,9.35676,-0.170161,5.12788,-1.12451,49.0909,7,0,0,0
0,1405702439,604925,-8.16572,18.6977,-25.6871,32.8041,-8.7959,-0.448868,3.23508,9.3827,2.22398,4.54103,-1.86912,49.0796,7,0,0,0
0,1405702440,605927,-8.1623,18.8138,-25.5514,32.7636,-8.78879,-0.448493,3.23132,9.37472,2.73523,4.67905,-1.61641,49.0099,7,0,0,0
0,1405702441,606940,-8.23742,18.8029,-25.15,32.4643,-8.7861,-0.422998,3.21901,9.36678,0.135438,5.58135,-2.31842,49.0028,6,0,0,0
0,1405702442,607942,-7.86552,18.8669,-25.2986,32.5246,-8.79071,-0.427757,3.21431,9.36971,-0.264383,4.39964,-0.539506,49.0536,7,0,0,0
0,1405702443,608948,-8.10639,19.1946,-25.5588,32.9757,-8.80644,-0.429877,3.19867,9.37921,0.690178,5.60162,-1.6172,49.0572,7,0,0,0
0,1405702444,609954,-8.18487,18.7651,-25.2458,32.5034,-8.78269,-0.44341,3.21321,9.36253,3.30895,5.23475,-1.73219,49.152,6,0,0,0
0,1405702445,610967,-8.12299,18.8818,-25.297,32.5951,-8.78349,-0.423025,3.18924,9.35413,1.44447,5.30032,-1.38996,49.0382,8,0,0,0
0,1405702446,611971,-8.17204,19.0471,-25.4345,32.8098,-8.77027,-0.437443,3.19974,9.34598,1.49909,4.19395,-1.27332,49.0754,7,0,0,0
0,1405702447,612990,-8.06753,18.8028,-25.4369,32.6446,-8.78416,-0.439844,3.18932,9.35557,0.750291,5.16699,-1.25269,49.0729,7,0,0,0
0,1405702448,613999,-8.01642,18.6755,-25.2126,32.3838,-8.78428,-0.427869,3.20167,9.35934,1.72085,5.73498,-1.42156,49.0646,7,0,0,0
0,1405702450,615000,-8.03354,18.7437,-25.4024,32.5753,-8.772,-0.447527,3.23071,9.35872,1.19323,3.93833,-2.41175,48.9865,7,0,0,0
0,1405702451,616007,-7.97901,18.7953,-25.5633,32.7171,-8.77357,-0.435987,3.1963,9.34783,0.812875,6.32922,-1.4504,49.0369,7,0,0,0
0,1405702452,617010,-8.0613,19.0604,-25.6609,32.9661,-8.78277,-0.43827,3.24633,9.37378,0.604449,5.66893,-1.42727,49.1002,6,0,0,0
0,1405702453,618016,-8.3583,18.8704,-25.6386,32.9134,-8.76562,-0.454297,3.20703,9.34492,1.70996,5.0841,-0.442017,49.0936,7,0,0,0
0,1405702454,619024,-7.99392,18.7661,-25.3963,32.5737,-8.80077,-0.442635,3.20647,9.37715,2.87505,4.83139,-1.76622,48.9886,6,0,0,0
0,1405702455,620031,-8.06001,18.9924,-25.3606,32.693,-8.77075,-0.457791,3.2114,9.3514,4.0268,5.82098,-1.66798,49.1235,7,0,0,0
0,1405702456,621033,-8.17165,18.6277,-25.7397,32.807,-8.77464,-0.449895,3.21612,9.35629,2.19474,6.16186,-0.0473526,49.0848,7,0,0,0
0,1405702457,622036,-8.0758,18.8408,-25.1826,32.4709,-8.78149,-0.450571,3.19592,9.35583,1.99148,4.74691,0.222106,49.1188,6,0,0,0
0,1405702458,623037,-8.2587,18.5852,-25.4999,32.6168,-8.7868,-0.421742,3.19397,9.3588,0.28667,5.18162,-1.10525,49.1469,6,0,0,0
0,1405702459,624043,-8.10645,18.7682,-25.1829,32.4367,-8.78489,-0.434857,3.2397,9.37331,1.00552,5.17865,-1.56654,49.0798,7,0,0,0
0,1405702460,625045,-7.96188,19.0806,-24.9196,32.3798,-8.77301,-0.426381,3.19845,9.34759,-0.0679711,4.80651,-1.29852,49.0104,6,0,0,0
0,1405702461,626046,-8.21488,18.9165,-25.3283,32.6626,-8.77962,-0.43169,3.19977,9.3545,2.00604,5.00897,-0.77073,49.0692,7,0,0,0
0,1405702462,627054,-8.25413,18.7033,-25.2661,32.5011,-8.7747,-0.425119,3.20227,9.35044,0.995139,4.51206,-0.956141,49.0083,5,0,0,0
0,1405702463,628061,-8.29762,19.0823,-25.5506,32.9517,-8.77972,-0.433523,3.19751,9.35391,0.58783,4.57538,-1.67931,49.1362,7,0,0,0
0,1405702464,629069,-8.30707,19.1456,-24.7416,32.3683,-8.80811,-0.433991,3.2003,9.38153,2.96518,5.3431,-0.971964,49.178,6,0,0,0
0,1405702465,630075,-8.14456,18.7411,-25.5076,32.6833,-8.78822,-0.427748,3.21432,9.36737,2.90197,5.48475,-0.639133,49.1303,7,0,0,0
0,1405702466,631083,-8.24255,18.8746,-25.4713,32.7563,-8.78844,-0.435303,3.23181,9.37394,0.973004,6.47753,-0.241544,49.0959,6,0,0,0
0,1405702467,632090,-8.17815,18.9009,-25.1416,32.4996,-8.79067,-0.431837,3.2235,9.37301,2.02859,4.96914,-2.1362,49.0286,6,0,0,0
0,1405702468,633092,-8.23684,18.7944,-25.6172,32.8225,-8.78311,-0.456536,3.2121,9.36318,2.03958,4.63979,-1.44669,49.1567,6,0,0,0
0,1405702469,634096,-7.99636,18.8503,-24.9599,32.2842,-8.76593,-0.436825,3.18883,9.33814,0.466307,4.61434,-1.08244,49.0799,5,0,0,0
0,1405702470,635104,-8.07558,18.7887,-25.0882,32.3674,-8.77432,-0.434007,3.19148,9.34679,1.07228,5.52983,-2.03668,49.0536,6,0,0,0
0,1405702471,636116,-7.99093,18.3775,-25.4632,32.4032,-8.78493,-0.440664,3.21407,9.3648,1.81651,4.99716,-1.27215,49.1135,6,0,0,0
0,1405702472,637118,-8.52659,18.6504,-25.4955,32.7194,-8.78867,-0.435866,3.19682,9.36218,2.14511,5.80249,-0.87688,49.0914,5,0,0,0
0,1405702473,638130,-8.1825,18.8248,-25.4139,32.6679,-8.7923,-0.423083,3.22202,9.37363,3.65386,3.70654,-1.97791,49.1952,6,0,0,0
0,1405702474,639136,-8.00382,19.2437,-25.2203,32.7177,-8.77901,-0.434177,3.20493,9.3558,2.43547,4.34949,-0.82522,49.1257,6,0,0,0
0,1405702475,640143,-8.29068,18.97,-25.5544,32.8881,-8.77542,-0.4265,3.21697,9.35622,0.614846,5.05164,-0.0810542,49.0591,6,0,0,0
0,1405702476,641144,-7.95404,18.8958,-25.3025,32.5658,-8.78973,-0.438104,3.18176,9.35814,1.63464,6.19641,-1.50862,49.1068,6,0,0,0
0,1405702477,642153,-8.19907,18.7124,-25.0034,32.2885,-8.78868,-0.407355,3.20685,9.36433,0.191784,5.39827,-0.200831,49.0589,7,0,0,0
0,1405702478,643158,-8.20456,18.9314,-25.3651,32.6972,-8.77864,-0.422255,3.20699,9.35561,0.85183,4.12525,-2.29303,49.0701,7,0,0,0
0,1405702479,644166,-8.16068,18.8865,-25.5583,32.8104,-8.77874,-0.413582,3.2318,9.36386,2.9036,5.82817,-0.536994,49.2329,7,0,0,0
0,1405702480,645174,-8.31696,18.8893,-25.3891,32.7197,-8.77046,-0.457479,3.21596,9.35268,2.03543,5.46371,-0.334988,49.0624,7,0,0,0
0,1405702481,646176,-8.1693,19.0602,-25.1415,32.5902,-8.76069,-0.400378,3.20577,9.33739,1.15284,4.10799,-1.43982,49.0627,6,0,0,0
0,1405702482,647177,-8.28735,18.7706,-25.3783,32.6354,-8.79032,-0.421685,3.19793,9.36346,0.966984,5.00978,-1.48742,49.1295,7,0,0,0
0,1405702483,648190,-8.10066,18.7755,-25.3059,32.5351,-8.77795,-0.44081,3.20403,9.35482,0.35673,3.82518,-1.88387,49.0688,7,0,0,0
0,1405702484,649197,-8.09944,18.783,-25.4093,32.6196,-8.7669,-0.450409,3.19959,9.34338,3.32621,4.72036,-0.666351,49.0798,5,0,0,0
0,1405702485,650202,-8.04712,18.9705,-25.3781,32.6908,-8.78985,-0.428713,3.1965,9.36284,3.23254,5.36598,-1.98396,49.048,7,0,0,0
0,1405702486,651209,-8.10397,18.5409,-24.7941,32.0029,-8.78296,-0.446574,3.24103,9.37252,0.198185,4.1568,-2.33045,49.1909,6,0,0,0
0,1405702487,652214,-8.1991,18.7619,-25.3233,32.5653,-8.78997,-0.417915,3.17831,9.35628,2.40045,5.30642,-1.32633,49.1039,7,0,0,0
0,1405702488,653218,-7.87441,18.9351,-25.3048,32.5711,-8.78572,-0.426583,3.19551,9.35853,1.26384,5.43294,-0.968454,49.1133,7,0,0,0
0,1405702489,654226,-8.17648,18.5633,-25.3438,32.4616,-8.78398,-0.447334,3.21986,9.36621,1.44054,4.5271,-1.34817,49.0438,6,0,0,0
0,1405702490,655231,-8.1692,18.8334,-25.4257,32.6787,-8.77836,-0.462566,3.22951,9.365,1.52305,3.95208,-2.23758,49.1806,7,0,0,0
0,1405702491,656239,-8.41122,18.6499,-25.5472,32.7296,-8.76083,-0.491803,3.18548,9.33495,2.06918,5.07365,-1.32196,49.0317,6,0,0,0
0,1405702492,657245,-7.99634,18.7628,-25.6221,32.7487,-8.78467,-0.447677,3.20564,9.362,1.25639,5.45281,-1.51246,49.0956,6,0,0,0
0,1405702493,658262,-8.33329,18.7598,-25.5313,32.7601,-8.77521,-0.411304,3.19793,9.34881,0.88798,5.86162,-1.7651,49.0763,7,0,0,0
0,1405702494,659269,-8.16383,18.6923,-24.8532,32.1517,-8.76841,-0.413093,3.20001,9.34322,1.83005,4.69888,-0.979705,49.1333,7,0,0,0
0,1405702495,660271,-8.11321,18.7662,-25.2643,32.5004,-8.7872,-0.432741,3.23558,9.37396,1.32862,4.98343,-1.18075,49.0667,7,0,0,0
0,1405702496,661279,-8.15844,18.6995,-25.5786,32.7184,-8.80216,-0.437814,3.2312,9.38671,3.31974,4.91407,-0.36831,49.0784,6,0,0,0
0,1405702497,662287,-8.05665,18.6168,-25.1937,32.3453,-8.77691,-0.429526,3.22795,9.36153,3.22812,4.32665,-1.03545,48.9967,7,0,0,0
0,1405702498,663292,-8.00424,18.9949,-25.3295,32.6567,-8.78688,-0.417386,3.23308,9.3721,1.90238,5.47162,-2.88122,49.0621,7,0,0,0
0,1405702499,664294,-8.06377,18.895,-25.4447,32.7029,-8.77849,-0.407317,3.19331,9.35013,0.900126,4.88338,-1.52739,49.0611,7,0,0,0
0,1405702500,665296,-8.22164,18.8521,-25.2267,32.5482,-8.77615,-0.439864,3.22281,9.35953,0.372895,5.45524,-1.33478,49.0438,7,0,0,0
0,1405702501,666302,-8.17915,18.9621,-24.8362,32.3001,-8.79637,-0.43364,3.21216,9.37455,1.97776,4.97229,-1.14237,49.1121,6,0,0,0
0,1405702502,667310,-7.90314,18.9165,-25.5616,32.7672,-8.77961,-0.436436,3.17638,9.34673,0.738301,6.05737,-1.51524,48.9972,6,0,0,0
0,1405702503,668317,-8.12385,18.6234,-24.8798,32.1222,-8.78049,-0.431664,3.19336,9.35312,1.55009,5.0457,0.235376,48.9943,6,0,0,0
0,1405702504,669320,-8.10666,18.8617,-25.5704,32.7922,-8.78418,-0.426803,3.19748,9.35777,0.969428,4.06774,-1.32445,49.0514,6,0,0,0
0,1405702505,670332,-8.06909,18.8446,-25.2792,32.5463,-8.78303,-0.428158,3.21465,9.36264,1.23698,5.20165,-1.35333,49.017,6,0,0,0
0,1405702506,671335,-8.08921,18.6508,-25.3982,32.5324,-8.75887,-0.414105,3.24512,9.34987,3.50902,4.53817,-0.798953,49.108,6,0,0,0
0,1405702507,672343,-8.02145,18.6238,-25.4327,32.5271,-8.78127,-0.434309,3.17542,9.34787,3.03984,5.69491,-1.15088,49.1285,7,0,0,0
0,1405702508,673345,-8.15989,18.6117,-25.2375,32.4024,-8.78884,-0.410711,3.2303,9.37269,1.83594,5.35882,-2.30018,49.0234,5,0,0,0
0,1405702509,674349,-8.26033,19.023,-25.3137,32.7245,-8.79844,-0.419267,3.21298,9.37612,1.82997,4.84724,-0.980898,49.1075,6,0,0,0
0,1405702510,675362,-7.77689,18.9125,-25.2454,32.4883,-8.78878,-0.40819,3.19867,9.36166,1.89305,4.71412,-1.15886,49.0522,6,0,0,0
0,1405702511,676371,-8.30447,18.8555,-25.4662,32.757,-8.78371,-0.427938,3.20549,9.36012,2.2471,4.13929,-1.31104,49.1116,7,0,0,0
0,1405702512,677376,-7.94252,18.9574,-25.3163,32.6096,-8.79609,-0.431158,3.20724,9.37248,0.371529,4.73213,-1.39969,49.0883,7,0,0,0
0,1405702513,678381,-8.14645,18.4743,-25.1723,32.2693,-8.79231,-0.431348,3.1927,9.36398,2.68805,4.79467,-0.594257,49.0435,6,0,0,0
0,1405702514,679389,-8.30316,18.3892,-25.2423,32.3153,-8.78751,-0.459757,3.20686,9.36567,2.18658,5.14396,-1.06341,49.0351,7,0,0,0
0,1405702515,680392,-8.13774,18.8596,-25.4268,32.6868,-8.77354,-0.426419,3.18124,9.34222,2.37129,4.94673,-0.965153,48.9653,7,0,0,0
0,1405702516,681402,-8.09086,18.8819,-25.0271,32.3781,-8.78511,-0.411949,3.21251,9.36312,2.46068,5.14811,-1.51672,49.0264,7,0,0,0
0,1405702517,682405,-8.13834,19.0028,-25.4186,32.7634,-8.77666,-0.42094,3.22162,9.35873,2.09486,5.37669,0.473574,48.9768,6,0,0,0
0,1405702518,683412,-8.15641,18.6811,-25.4885,32.637,-8.80858,-0.419932,3.19462,9.37939,0.792341,5.33284,-0.302156,49.1069,6,0,0,0
0,1405702519,684420,-8.17832,18.9863,-25.2776,32.6546,-8.77957,-0.428735,3.19778,9.35363,2.17467,5.76169,-1.39517,48.9914,6,0,0,0
0,1405702520,685421,-8.23046,18.775,-25.0823,32.3939,-8.7771,-0.433946,3.22784,9.36188,0.710056,5.32761,-1.47065,48.9606,6,0,0,0
0,1405702521,686425,-8.00138,19.0049,-25.1515,32.5239,-8.79471,-0.431556,3.21766,9.37478,1.92402,5.0759,-1.32187,49.0762,6,0,0,0
0,1405702522,687432,-8.21113,18.7296,-25.2822,32.5178,-8.77373,-0.423404,3.18369,9.3431,1.6813,4.9951,-1.62434,48.9756,6,0,0,0
0,1405702523,688437,-8.15001,18.8203,-25.3086,32.5753,-8.75679,-0.435641,3.19652,9.33214,0.744707,4.96094,-1.49967,49.1077,7,0,0,0
0,1405702524,689449,-8.24995,18.563,-25.5612,32.65,-8.77534,-0.44644,3.22185,9.35875,2.19002,5.3752,-2.22294,49.1167,6,0,0,0
0,1405702525,690456,-8.16617,18.626,-25.3088,32.4677,-8.79534,-0.430096,3.19399,9.3672,2.81131,5.53022,-2.2118,49.1158,6,0,0,0
0,1405702526,691459,-8.04366,18.9811,-25.0496,32.4417,-8.78987,-0.437449,3.24111,9.37859,1.97544,5.35871,-1.09481,49.0684,7,0,0,0
0,1405702527,692470,-8.21498,19.0326,-25.2859,32.6971,-8.78095,-0.426245,3.21305,9.36005,2.49683,5.42481,-0.849202,49.1031,7,0,0,0
0,1405702528,693479,-8.18449,18.6155,-25.3555,32.5027,-8.79603,-0.434064,3.20706,9.37251,2.33753,4.20346,-1.57707,49.058,6,0,0,0
0,1405702529,694484,-8.12417,19.0914,-25.1469,32.6014,-8.78464,-0.445528,3.19371,9.35778,3.35585,4.32637,-1.85574,49.0441,7,0,0,0
0,1405702530,695493,-8.13187,18.724,-25.1839,32.4183,-8.77217,-0.431631,3.19954,9.34743,1.65625,5.10534,-0.409031,49.0565,7,0,0,0
0,1405702531,696495,-7.97094,18.949,-25.1565,32.4877,-8.78458,-0.420629,3.16649,9.34732,3.24256,4.12196,-1.19873,49.0029,6,0,0,0
0,1405702532,697498,-8.09638,18.74,-25.0768,32.3355,-8.78872,-0.43256,3.20268,9.36408,2.83583,5.18116,-1.00245,49.0445,7,0,0,0
0,1405702533,698501,-8.21097,18.6419,-25.2365,32.4318,-8.79284,-0.441133,3.19485,9.36566,2.54122,5.9337,-1.31988,48.9724,6,0,0,0
0,1405702534,699503,-8.10423,19.1524,-24.9791,32.5031,-8.7732,-0.442702,3.18024,9.34232,0.831872,5.12967,-2.06585,49.059,6,0,0,0
0,1405702535,700510,-7.89839,18.7289,-25.3595,32.5002,-8.7886,-0.434724,3.24299,9.37792,1.67313,5.11371,-0.987271,48.9309,8,0,0,0
0,1405702536,701515,-7.97958,18.9628,-25.4422,32.7195,-8.79334,-0.437122,3.23083,9.37828,2.89037,3.93835,-1.30641,49.1043,6,0,0,0
0,1405702537,702519,-8.005,18.7709,-25.0346,32.298,-8.75832,-0.420626,3.27855,9.3613,1.59714,5.30009,-1.05826,49.0028,7,0,0,0
0,1405702538,703527,-8.16312,18.7885,-25.2944,32.5492,-8.78715,-0.441947,3.23069,9.37265,2.74784,5.27326,-2.31991,48.9317,6,0,0,0
0,1405702539,704529,-8.22891,19.1206,-25.0116,32.5406,-8.7709,-0.433407,3.18499,9.34134,2.80575,6.21788,-0.878632,48.9959,8,0,0,0
0,1405702540,705531,-8.19872,18.9496,-25.3069,32.6611,-8.78098,-0.402371,3.21275,9.35891,0.759053,5.08425,-1.27873,49.0527,7,0,0,0
0,1405702541,706533,-8.05482,19.0292,-24.96,32.4036,-8.78506,-0.402345,3.1841,9.35294,0.55966,5.60882,-0.849936,49.0049,6,0,0,0
0,1405702542,707540,-8.10736,18.8437,-25.3441,32.6058,-8.77579,-0.402892,3.22001,9.35656,0.339961,5.10928,-0.337104,49.0347,7,0,0,0
0,1405702543,708542,-8.12399,18.9758,-25.4302,32.7532,-8.77781,-0.420607,3.21459,9.35737,2.39798,4.72558,-0.922438,49.0416,7,0,0,0
0,1405702544,709546,-8.0801,19.0145,-25.1807,32.5716,-8.77558,-0.420253,3.21578,9.35567,1.61957,5.72525,-0.329401,48.9782,7,0,0,0
0,1405702545,710551,-8.01845,18.7557,-25.3827,32.5631,-8.78901,-0.433536,3.2136,9.36813,2.59758,4.53129,-1.66795,49.0519,7,0,0,0
0,1405702546,711556,-8.11642,18.924,-25.2576,32.5874,-8.78437,-0.42869,3.20349,9.36009,0.901427,4.77794,-0.651156,48.9892,7,0,0,0
0,1405702547,712558,-7.9522,19.1604,-25.026,32.5063,-8.79291,-0.426081,3.21494,9.37191,2.06608,4.22588,-1.90309,49.1148,7,0,0,0
0,1405702548,713566,-8.03205,18.7385,-25.4791,32.6318,-8.78352,-0.451366,3.18835,9.35518,1.19558,4.67646,-0.638219,49.0901,5,0,0,0
0,1405702549,714573,-8.13271,18.9602,-25.4199,32.7383,-8.78626,-0.437977,3.22032,9.36806,1.04832,4.55926,-0.725188,49.0809,7,0,0,0
0,1405702550,715582,-7.90859,19.0417,-25.2911,32.6308,-8.77132,-0.435737,3.22277,9.3548,0.901241,4.83588,-2.23282,49.0824,6,0,0,0
0,1405702551,716585,-8.07105,19.0071,-25.2161,32.5924,-8.76222,-0.431559,3.21011,9.34171,2.11576,4.44743,-1.29685,48.9641,6,0,0,0
0,1405702552,717587,-7.9828,18.9345,-25.3726,32.6498,-8.77621,-0.45969,3.22096,9.3599,0.0799943,6.35712,-1.15076,48.9905,6,0,0,0
0,1405702553,718594,-8.47773,18.8748,-25.0793,32.5131,-8.77555,-0.427143,3.2159,9.356,2.57411,4.93268,-0.46178,48.9799,5,0,0,0
0,1405702554,719596,-8.07395,18.8379,-25.2322,32.5072,-8.78641,-0.413872,3.21589,9.36559,2.57106,5.70458,0.4378,49.0082,5,0,0,0
0,1405702555,720602,-8.35815,18.8444,-25.4215,32.7295,-8.77833,-0.461816,3.21785,9.36092,1.63817,4.22221,-0.0882053,49.0189,7,0,0,0
0,1405702556,721609,-7.88957,18.9876,-25.4219,32.6963,-8.7752,-0.429387,3.23907,9.36377,3.03089,5.77587,-1.31107,49.1363,6,0,0,0
0,1405702557,722611,-8.17157,18.8514,-25.3375,32.6211,-8.79114,-0.422858,3.19816,9.36436,0.146989,5.22661,-0.515797,49.1705,7,0,0,0
0,1405702558,723619,-8.09772,18.819,-25.0855,32.3884,-8.79442,-0.415755,3.19476,9.36596,1.84825,4.69033,-1.37048,48.9694,5,0,0,0
0,1405702559,724626,-8.18169,19.0027,-25.4733,32.8166,-8.77359,-0.421576,3.23354,9.35999,0.319126,4.56615,-1.03119,49.09,6,0,0,0
0,1405702560,725633,-8.20029,18.6251,-25.3085,32.4755,-8.79185,-0.433857,3.20708,9.36858,0.562849,5.3466,-1.79017,49.0042,6,0,0,0
0,1405702561,726636,-8.14323,19.0527,-25.4969,32.8544,-8.78988,-0.43194,3.19358,9.36202,0.564085,5.30213,-1.6891,49.0624,7,0,0,0
0,1405702562,727640,-8.06994,18.8723,-25.1683,32.4766,-8.77921,-0.409378,3.21059,9.35681,1.20772,5.75185,-0.421889,49.0314,7,0,0,0
0,1405702563,728645,-8.18991,18.6222,-25.3559,32.5082,-8.79127,-0.408737,3.22115,9.37173,2.4066,4.52064,-1.2506,49.0652,7,0,0,0
0,1405702564,729647,-8.25475,18.9644,-24.8578,32.3373,-8.77301,-0.456707,3.22164,9.35699,2.42872,4.40804,-1.30016,48.999,6,0,0,0
0,1405702565,730654,-8.01045,18.7078,-25.0067,32.2411,-8.77204,-0.427589,3.19135,9.34432,0.996527,5.26925,-1.35518,49.1414,5,0,0,0
0,1405702566,731659,-8.24954,18.6084,-25.3428,32.5051,-8.78266,-0.433252,3.22017,9.36442,1.60291,4.88861,-1.02326,48.9688,6,0,0,0
0,1405702567,732669,-7.90711,19.0853,-25.2545,32.6276,-8.78393,-0.431319,3.1601,9.34504,1.20887,5.67778,-3.37456,48.9751,6,0,0,0
0,1405702568,733670,-8.07501,18.6802,-25.3433,32.5029,-8.74689,-0.412194,3.19118,9.31996,1.34533,4.85158,-1.15955,49.1474,6,0,0,0
0,1405702569,734684,-8.08636,18.9952,-25.5009,32.8101,-8.78243,-0.447403,3.1858,9.3531,2.48459,4.85307,-1.45837,49.1349,7,0,0,0
0,1405702570,735693,-8.05886,18.6449,-25.1378,32.3185,-8.78746,-0.453263,3.21402,9.36775,2.51524,5.28764,-0.772663,49.1232,6,0,0,0
0,1405702571,736697,-8.10271,19.0237,-25.4334,32.7782,-8.78513,-0.427682,3.23689,9.37224,3.04325,4.03751,-0.595497,49.1426,7,0,0,0
0,1405702572,737705,-8.09673,18.9377,-25.301,32.6241,-8.79133,-0.449124,3.19443,9.36449,-0.208364,4.93541,-0.998786,49.0125,7,0,0,0
0,1405702573,738718,-8.29882,18.9592,-24.9887,32.4462,-8.79437,-0.444301,3.23,9.3793,1.62191,4.32502,-1.04953,49.0693,7,0,0,0
0,1405702574,739722,-8.08554,18.9748,-25.2603,32.6114,-8.77765,-0.425964,3.22806,9.3621,1.75315,5.63348,-0.829474,49.0751,7,0,0,0
0,1405702575,740727,-7.96922,18.8513,-25.5276,32.7191,-8.80156,-0.443114,3.19249,9.37314,0.520115,4.58027,-1.23208,49.0172,6,0,0,0
0,1405702576,741729,-8.41558,18.7715,-24.9298,32.3216,-8.7851,-0.444767,3.20089,9.36063,2.65987,5.43233,-2.48955,49.0086,7,0,0,0
0,1405702577,742730,-8.17073,19.1279,-25.5801,32.9694,-8.77809,-0.433347,3.23342,9.3647,3.2698,4.94954,-0.833834,49.048,6,0,0,0
0,1405702578,743738,-7.71974,18.786,-25.2258,32.3859,-8.7861,-0.450188,3.17401,9.35267,2.33061,4.68513,-2.0569,49.055,6,0,0,0
0,1405702579,744741,-8.17626,18.594,-25.4454,32.5585,-8.77735,-0.439432,3.18506,9.34771,2.08596,4.12254,-0.802867,49.0448,6,0,0,0
0,1405702580,745750,-8.33563,18.6629,-25.1845,32.4352,-8.7764,-0.428539,3.1991,9.3511,0.920481,4.72205,-0.259029,49.096,6,0,0,0
0,1405702581,746755,-8.00887,18.7262,-25.6749,32.7721,-8.77487,-0.443531,3.17457,9.342,1.79591,5.91663,-1.15675,48.9273,7,0,0,0
0,1405702582,747757,-7.87045,18.8405,-25.1079,32.3623,-8.77905,-0.410716,3.19734,9.35219,0.743702,2.83289,-0.846528,49.0101,7,0,0,0
0,1405702583,748761,-7.87758,18.8716,-25.1486,32.4136,-8.78835,-0.440817,3.17568,9.35491,2.41257,5.03656,-1.33093,48.9342,7,0,0,0
0,1405702584,749768,-8.18705,18.9559,-24.9868,32.4144,-8.81235,-0.409133,3.20139,9.38476,-0.220606,5.45102,-1.37286,49.0668,7,0,0,0
0,1405702585,750773,-7.87789,19.1781,-25.2236,32.6511,-8.80499,-0.401861,3.22594,9.38595,0.604964,5.04948,-1.79926,49.0079,7,0,0,0
0,1405702586,751777,-8.09126,18.7638,-25.3802,32.5837,-8.78971,-0.422403,3.18744,9.35934,0.861621,4.0329,-2.07287,49.0563,7,0,0,0
0,1405702587,752785,-7.96663,19.0445,-25.2873,32.6436,-8.77456,-0.423296,3.23874,9.36277,-0.493547,5.43759,-1.99931,49.044,7,0,0,0
0,1405702588,753794,-7.95177,19.1171,-25.3806,32.7546,-8.79062,-0.430632,3.20695,9.36723,1.70275,5.29202,-1.11548,49.1601,7,0,0,0
0,1405702589,754802,-8.11397,18.8647,-25.6611,32.8665,-8.79804,-0.437469,3.20681,9.37446,2.09398,5.49775,-1.16936,49.1123,6,0,0,0
0,1405702590,755810,-7.81104,18.9061,-25.0673,32.3547,-8.77471,-0.436858,3.18787,9.34607,2.78567,4.75397,-1.17973,48.9784,6,0,0,0
0,1405702591,756823,-8.04582,18.9794,-25.0296,32.4258,-8.79262,-0.421045,3.21631,9.37188,2.42526,5.18417,-0.340835,49.0623,7,0,0,0
0,1405702592,757829,-8.04548,18.954,-25.0497,32.4264,-8.78089,-0.42871,3.21306,9.36011,3.21817,4.65311,0.107924,49.0621,6,0,0,0
0,1405702593,758838,-8.04807,18.9011,-25.0647,32.4077,-8.78968,-0.448065,3.2143,9.36969,0.523782,4.16555,-2.12841,49.0864,6,0,0,0
0,1405702594,759840,-7.96189,18.9288,-25.0883,32.4209,-8.78866,-0.410004,3.1841,9.35666,0.253131,4.24586,-0.635245,48.9837,7,0,0,0
0,1405702595,760844,-7.93418,18.7258,-25.2296,32.4059,-8.79251,-0.445741,3.20706,9.36974,2.58637,4.60628,-1.51994,49.0457,7,0,0,0
0,1405702596,761851,-8.09804,18.6281,-25.3547,32.4876,-8.78339,-0.441765,3.21476,9.36364,0.744758,4.47504,-0.142376,49.0614,7,0,0,0
0,1405702597,762853,-8.18658,19.1566,-25.1744,32.6764,-8.79924,-0.410393,3.19962,9.37191,2.2296,5.30459,-1.03552,48.9502,6,0,0,0
0,1405702598,763859,-8.21394,18.7799,-25.5009,32.7177,-8.78499,-0.449256,3.2181,9.36665,0.98653,5.21992,-1.4753,48.8868,7,0,0,0
0,1405702599,764866,-8.24229,18.7909,-25.1776,32.4799,-8.79231,-0.426058,3.21026,9.36973,1.85675,4.57943,-0.338982,49.0034,5,0,0,0
0,1405702600,765869,-8.16292,18.7822,-25.353,32.591,-8.77844,-0.447937,3.21998,9.36109,2.44419,5.28971,-1.55519,48.963,6,0,0,0
0,1405702601,766873,-8.13863,19.0824,-25.3475,32.7547,-8.78076,-0.418956,3.19796,9.35437,0.415999,5.71943,-1.42777,49.0145,7,0,0,0
0,1405702602,767875,-8.07992,18.759,-25.3592,32.5618,-8.76666,-0.415683,3.19735,9.34078,1.75318,4.80325,-1.49983,48.9961,7,0,0,0
0,1405702603,768877,-7.96226,19.0251,-25.1986,32.5626,-8.77914,-0.451161,3.18912,9.35133,2.24428,4.2855,-1.23222,49.0724,7,0,0,0
0,1405702604,769886,-7.99666,18.6991,-25.0916,32.2985,-8.77908,-0.43503,3.23147,9.36504,2.88771,5.61071,-2.17409,49.0158,6,0,0,0
0,1405702605,770889,-8.1775,18.8696,-24.8359,32.2452,-8.7837,-0.418581,3.19488,9.35606,2.79021,6.14948,-1.44906,49.1552,7,0,0,0
0,1405702606,771893,-7.91717,18.9412,-25.3031,32.5837,-8.78047,-0.434696,3.20295,9.35652,2.49707,4.98612,-0.986655,48.9588,7,0,0,0
0,1405702607,772897,-8.20678,18.6994,-25.5045,32.6726,-8.77464,-0.436365,3.20746,9.35267,2.47377,4.68025,-1.45567,49.0903,6,0,0,0
0,1405702608,773899,-8.14875,18.763,-25.345,32.5703,-8.79052,-0.443672,3.19757,9.36453,2.21979,4.73288,-1.98244,49.0488,6,0,0,0
0,1405702609,774901,-7.90126,18.9106,-25.1196,32.4197,-8.77646,-0.434967,3.2015,9.35228,1.35181,4.95686,-1.24651,48.9635,6,0,0,0
0,1405702610,775910,-7.99026,18.9522,-25.3977,32.6814,-8.79277,-0.423565,3.19875,9.36612,1.95276,5.04914,-1.30293,49.0856,7,0,0,0
0,1405702611,776928,-8.27007,18.6368,-25.4457,32.6069,-8.79195,-0.407608,3.22356,9.37315,0.806691,4.29216,-2.07915,48.9841,6,0,0,0
0,1405702612,777931,-8.09668,18.9447,-25.3899,32.6972,-8.78813,-0.43825,3.20535,9.3647,3.16556,4.79387,-1.3028,49.0706,7,0,0,0
0,1405702613,778943,-8.28435,18.6613,-25.3803,32.5736,-8.78218,-0.435609,3.22023,9.3641,1.86852,5.05748,-0.844794,49.0543,6,0,0,0
0,1405702614,779955,-8.24283,18.7368,-25.0901,32.381,-8.7728,-0.430981,3.18521,9.34309,1.79084,4.86521,-1.30696,48.9136,6,0,0,0
0,1405702615,780967,-8.17298,18.7974,-25.4879,32.7074,-8.77174,-0.44308,3.1857,9.34283,2.41618,4.86432,-1.90734,48.9499,6,0,0,0
0,1405702616,781975,-8.03177,18.7846,-25.1198,32.3786,-8.80219,-0.436904,3.21535,9.38125,1.34524,4.87424,-2.06844,49.0023,6,0,0,0
0,1405702617,782983,-8.11484,18.9377,-25.5262,32.8036,-8.79057,-0.420512,3.22026,9.37129,1.05495,4.58259,-1.17423,49.0085,6,0,0,0
0,1405702618,783992,-7.9043,18.8626,-25.0362,32.3278,-8.79621,-0.415371,3.20805,9.37216,2.18447,4.70675,-1.47896,49.0193,7,0,0,0
0,1405702620,785000,-8.13985,18.8604,-25.2456,32.547,-8.79945,-0.42364,3.17981,9.36594,2.78649,4.9064,-1.18719,48.9601,6,0,0,0
0,1405702621,786005,-7.9881,19.0756,-25.1578,32.5669,-8.76091,-0.427874,3.1915,9.33393,0.973171,5.4013,-0.200029,49.0515,7,0,0,0
0,1405702622,787011,-8.20916,18.9461,-25.3707,32.7111,-8.79266,-0.452375,3.20728,9.37028,1.74494,5.68625,-2.01082,48.9642,6,0,0,0
0,1405702623,788012,-8.01627,18.7287,-25.5081,32.6449,-8.79515,-0.431478,3.20304,9.37018,1.79266,4.84646,-2.05547,49.0418,6,0,0,0
0,1405702624,789017,-7.98223,18.9558,-25.1548,32.4931,-8.78908,-0.41692,3.20003,9.3628,1.31261,5.23598,-1.30139,49.0369,7,0,0,0
0,1405702625,790018,-8.0774,18.8964,-25.2571,32.5614,-8.79718,-0.418879,3.18927,9.36682,2.62952,5.10563,-1.55166,49.0594,6,0,0,0
0,1405702626,791023,-8.0627,18.9032,-25.3811,32.6579,-8.79028,-0.422358,3.18865,9.36028,2.36478,5.27332,-1.94105,49.0568,8,0,0,0
0,1405702627,792026,-8.07379,19.054,-25.4352,32.7901,-8.80132,-0.423009,3.20187,9.37519,0.706131,5.04152,-0.979703,48.9871,7,0,0,0
0,1405702628,793035,-8.30119,18.7841,-25.5929,32.8138,-8.79445,-0.432064,3.21423,9.37338,1.56928,4.29214,-1.5562,49.0257,6,0,0,0
0,1405702629,794042,-7.96367,18.9249,-25.2235,32.5238,-8.77934,-0.431846,3.20209,9.35504,1.12142,4.96619,-1.82323,49.0658,7,0,0,0
0,1405702630,795044,-8.23199,18.7233,-25.255,32.4983,-8.78305,-0.439563,3.15553,9.34305,2.08044,5.25771,-1.73757,49.0144,7,0,0,0
0,1405702631,796048,-7.87711,18.8746,-25.4293,32.6336,-8.8051,-0.450739,3.1928,9.37694,4.06691,5.0296,-0.838419,49.1122,7,0,0,0
0,1405702632,797052,-8.06138,18.9088,-25.1676,32.4952,-8.78872,-0.462761,3.21317,9.36911,2.02208,4.83304,-2.00782,49.0249,7,0,0,0
0,1405702633,798063,-8.07385,18.7246,-24.8076,32.1126,-8.78829,-0.447058,3.21761,9.36947,0.238559,6.74249,-0.443207,49.0406,6,0,0,0
0,1405702634,799066,-8.09692,18.9562,-25.35,32.6729,-8.78185,-0.435865,3.18546,9.3519,1.44651,5.15717,-1.97204,49.0388,6,0,0,0
0,1405702635,800071,-8.12607,18.9896,-25.3094,32.6681,-8.77373,-0.446622,3.21828,9.35602,0.744413,4.44598,-0.913315,49.0558,6,0,0,0
0,1405702636,801078,-7.96865,18.903,-25.3165,32.5845,-8.7723,-0.432546,3.21918,9.35433,2.19491,4.5711,-0.280719,49.1105,7,0,0,0
0,1405702637,802081,-8.183,19.1876,-24.603,32.2557,-8.79427,-0.445752,3.2026,9.36988,0.860317,5.31375,-1.7102,49.0867,7,0,0,0
0,1405702638,803083,-8.15958,18.8966,-25.6053,32.8526,-8.79814,-0.43709,3.22855,9.38199,-0.431424,4.2557,-1.37387,49.0628,6,0,0,0
0,1405702639,804087,-8.0956,18.8372,-25.1315,32.4341,-8.77377,-0.432711,3.1938,9.34701,2.64411,4.75302,-0.955665,49.0297,6,0,0,0
0,1405702640,805097,-8.20707,19.1644,-24.9772,32.5345,-8.80649,-0.443864,3.19368,9.37821,3.39426,5.80254,-1.06273,49.0746,7,0,0,0
0,1405702641,806100,-8.15002,18.8528,-25.316,32.5998,-8.79574,-0.435463,3.21454,9.37485,1.7206,6.23913,-1.71242,49.0455,6,0,0,0
0,1405702642,807104,-8.09301,18.9184,-25.468,32.7418,-8.78615,-0.411068,3.16574,9.34812,2.26605,4.56852,-0.7976,49.0186,7,0,0,0
0,1405702643,808106,-8.37617,18.7939,-25.2865,32.6003,-8.78632,-0.431779,3.19675,9.35976,1.48505,5.05853,-0.810815,49.1422,6,0,0,0
0,1405702644,809107,-7.86045,18.7149,-25.2304,32.3822,-8.76998,-0.383457,3.19037,9.34013,2.57118,5.62919,-2.18566,48.9922,7,0,0,0
0,1405702645,810118,-8.09972,18.8288,-25.5563,32.7606,-8.76153,-0.433861,3.22029,9.34467,1.23566,4.07079,-2.09964,49.1055,6,0,0,0
0,1405702646,811121,-8.26615,18.7549,-25.3927,32.6323,-8.80946,-0.454171,3.2234,9.39166,0.912297,4.32133,-1.52155,49.1328,6,0,0,0
0,1405702647,812125,-8.12175,18.9302,-25.2864,32.6147,-8.76977,-0.429158,3.23167,9.35611,0.31044,4.9155,-1.38308,48.9591,6,0,0,0
0,1405702648,813129,-8.20268,18.7158,-25.3361,32.5497,-8.77692,-0.438141,3.22662,9.36149,0.0241303,5.4243,-0.326974,49.0735,6,0,0,0
0,1405702649,814142,-7.86816,18.9527,-25.2442,32.5328,-8.77943,-0.444941,3.19035,9.35172,1.79152,5.88196,-1.15118,49.044,7,0,0,0
0,1405702650,815145,-8.11509,18.8669,-25.0833,32.4189,-8.774,-0.457116,3.18734,9.34619,2.93157,5.2626,-1.06921,49.0924,6,0,0,0
0,1405702651,816146,-8.38589,18.2326,-25.8696,32.7412,-8.78543,-0.433015,3.20178,9.3607,2.02055,5.66887,-1.38057,49.0902,7,0,0,0
0,1405702652,817152,-8.633,17.6381,-25.9111,32.5118,-8.78216,-0.433941,3.20348,9.35826,3.86483,4.80703,-1.89511,49.1552,7,0,0,0
0,1405702653,818153,-8.15184,18.9049,-25.377,32.6778,-8.7805,-0.436385,3.19304,9.35324,0.686456,5.24852,-0.648992,49.0276,7,0,0,0
0,1405702654,819162,-7.95846,19.2223,-25.2237,32.6966,-8.76306,-0.432701,3.22862,9.34892,1.78375,5.43176,-1.43242,49.1299,7,0,0,0
0,1405702655,820168,-8.18029,18.9456,-25.4631,32.7754,-8.77852,-0.451316,3.20178,9.35508,2.56204,5.82319,-0.650817,49.1607,6,0,0,0
0,1405702656,821172,-8.18933,18.763,-25.4369,32.652,-8.7909,-0.440375,3.20232,9.36636,0.683379,5.62644,-0.914614,49.0696,5,0,0,0
0,1405702657,822174,-8.04978,18.6857,-25.3275,32.4875,-8.77231,-0.419162,3.19742,9.34626,2.4481,4.09829,-1.0966,49.0814,7,0,0,0
0,1405702658,823176,-8.31982,18.9152,-25.3391,32.6967,-8.77691,-0.450884,3.20098,9.35327,1.51291,5.03711,-2.77351,49.1085,6,0,0,0
0,1405702659,824186,-8.20386,18.6626,-25.4127,32.5792,-8.79803,-0.411665,3.19322,9.36864,2.16717,5.19113,-0.599364,49.0228,6,0,0,0
0,1405702660,825191,-8.06005,18.8891,-25.3538,32.6279,-8.77299,-0.418643,3.1871,9.34335,1.43153,4.63575,-1.54163,49.0313,6,0,0,0
0,1405702661,826200,-8.04895,18.9408,-25.3217,32.6302,-8.76584,-0.450582,3.22413,9.35082,0.479564,4.16574,-0.715767,49.1222,6,0,0,0
0,1405702662,827210,-8.07763,19.0463,-25.3616,32.7295,-8.77806,-0.425612,3.22306,9.36075,2.25737,4.34876,-2.66829,49.1106,5,0,0,0
0,1405702663,828220,-8.13624,18.8872,-25.3234,32.622,-8.78929,-0.463251,3.20364,9.36641,2.34725,5.07717,-1.66331,49.0881,7,0,0,0
0,1405702664,829236,-8.03022,18.8366,-25.4405,32.6576,-8.78493,-0.421577,3.19981,9.35904,1.54997,4.06241,-2.03747,49.0893,6,0,0,0
0,1405702665,830239,-8.09,19.0977,-25.247,32.6739,-8.76815,-0.441862,3.20897,9.34736,2.72378,4.38216,-2.1138,49.0213,7,0,0,0
0,1405702666,831241,-8.14569,18.8769,-24.8623,32.2618,-8.7904,-0.446337,3.2119,9.36945,0.97847,4.44121,-2.01838,49.1548,7,0,0,0
0,1405702667,832247,-8.18849,18.9541,-25.4958,32.8077,-8.78009,-0.420279,3.21654,9.36016,2.26954,5.79247,-1.60821,49.0748,7,0,0,0
0,1405702668,833255,-8.22218,19.0249,-25.5147,32.8717,-8.77685,-0.439506,3.20812,9.35512,2.09445,5.07636,-0.980397,49.0851,6,0,0,0
0,1405702669,834262,-8.15589,18.787,-25.0641,32.3679,-8.79384,-0.422513,3.19485,9.36575,0.866977,4.74454,-1.73434,49.1103,7,0,0,0
0,1405702670,835273,-8.45621,18.6028,-25.6716,32.8116,-8.78703,-0.396731,3.21471,9.36503,2.09159,5.14442,-1.91128,49.0819,7,0,0,0
0,1405702671,836276,-8.27071,18.6032,-25.4806,32.6151,-8.79411,-0.405076,3.20287,9.36797,3.46843,4.76358,-1.42136,49.0721,6,0,0,0
0,1405702672,837286,-8.38725,18.8084,-25.5327,32.8028,-8.79238,-0.437399,3.18745,9.36254,2.05216,5.57511,-2.36394,49.1211,7,0,0,0
0,1405702673,838292,-8.10021,18.986,-25.3434,32.6859,-8.77963,-0.451993,3.21895,9.36204,2.98559,3.92279,-1.3063,49.1444,6,0,0,0
0,1405702674,839300,-8.15659,19.0246,-25.2208,32.6275,-8.78069,-0.4625,3.20738,9.35958,2.34628,4.88769,-1.27553,49.1327,7,0,0,0
0,1405702675,840305,-8.19531,18.9925,-25.2677,32.6547,-8.79049,-0.427224,3.19908,9.36426,1.72388,5.69142,-0.878151,49.0983,7,0,0,0
0,1405702676,841306,-8.1598,18.6342,-25.2844,32.4517,-8.80046,-0.432443,3.22921,9.38418,1.84767,4.14225,-0.101588,49.1028,6,0,0,0
0,1405702677,842313,-8.40576,18.4466,-25.3071,32.425,-8.77943,-0.418895,3.18706,9.34939,2.53683,5.02617,-0.984552,49.0925,7,0,0,0
0,1405702678,843319,-7.99364,19.0914,-25.4384,32.7947,-8.78149,-0.431151,3.20122,9.35672,1.79409,5.37433,-1.35084,49.0085,6,0,0,0
0,1405702679,844322,-8.10848,18.9324,-24.8885,32.3051,-8.80136,-0.414646,3.19966,9.3741,3.26786,4.42369,-1.15939,49.078,7,0,0,0
0,1405702680,845328,-8.09938,18.7374,-25.2867,32.4978,-8.77219,-0.425942,3.19683,9.34626,1.02071,5.57836,-2.22076,49.0293,7,0,0,0
0,1405702681,846332,-8.20556,18.9794,-25.3469,32.7111,-8.77853,-0.447704,3.18889,9.35051,1.62193,3.8358,-2.35165,49.0402,6,0,0,0
0,1405702682,847338,-8.04813,18.9712,-25.3511,32.6704,-8.78894,-0.425028,3.216,9.3685,0.671674,4.33957,-1.40805,49.1596,7,0,0,0
0,1405702683,848340,-7.95617,18.8891,-25.4124,32.648,-8.78516,-0.437533,3.24096,9.37413,2.95574,5.44792,-1.19261,49.1336,5,0,0,0
0,1405702684,849349,-8.32261,18.6742,-25.3812,32.5913,-8.80141,-0.42575,3.20894,9.37781,2.45038,5.21351,-1.02721,49.0507,7,0,0,0
0,1405702685,850353,-8.06901,18.9308,-25.4926,32.7622,-8.7901,-0.412724,3.24447,9.37885,0.423442,4.71039,-1.04415,49.0557,7,0,0,0
0,1405702686,851356,-8.20079,18.8968,-25.761,32.9844,-8.7766,-0.406561,3.204,9.35199,1.71473,5.14528,-0.0118386,49.0502,7,0,0,0
0,1405702687,852365,-8.13241,18.9738,-25.091,32.4915,-8.7978,-0.436263,3.21181,9.37589,1.75141,5.07033,-1.30612,49.1061,6,0,0,0
0,1405702688,853370,-8.3491,18.7166,-25.202,32.4832,-8.79835,-0.420128,3.21432,9.37653,2.11844,4.43449,-1.08585,49.0874,5,0,0,0
0,1405702689,854378,-8.27758,18.6631,-25.1056,32.3592,-8.78173,-0.441083,3.20688,9.35935,1.3414,4.94634,-0.679338,49.0273,6,0,0,0
0,1405702690,855386,-8.37299,18.452,-25.314,32.425,-8.79547,-0.422697,3.20473,9.37066,1.76231,5.19687,-1.26383,49.0073,6,0,0,0
0,1405702691,856393,-8.03227,18.9299,-25.2498,32.5639,-8.78524,-0.397961,3.1957,9.35689,3.65292,4.88264,-1.14101,49.0486,6,0,0,0
0,1405702692,857394,-8.44423,18.8685,-25.222,32.6109,-8.77621,-0.423029,3.2236,9.35908,0.828339,5.10408,-2.56604,49.027,6,0,0,0
0,1405702693,858403,-8.28195,18.6218,-25.278,32.4706,-8.78222,-0.408711,3.20167,9.35655,2.05561,4.57362,-1.04707,48.9991,7,0,0,0
0,1405702694,859408,-8.01189,18.9762,-25.0519,32.4328,-8.80239,-0.419067,3.1808,9.36884,1.16578,4.59576,-2.18705,49.1371,6,0,0,0
0,1405702695,860416,-8.00462,19.0526,-25.2933,32.6623,-8.75455,-0.422077,3.17523,9.32214,1.01087,5.2772,-2.25811,49.0487,6,0,0,0
0,1405702696,861424,-8.1544,19.1651,-24.9695,32.5157,-8.82591,-0.421585,3.23286,9.40882,2.68889,5.1489,-0.714135,49.0505,6,0,0,0
0,1405702697,862431,-8.01476,18.9577,-25.5801,32.8324,-8.77969,-0.455889,3.24145,9.37005,1.51976,5.9279,-1.62527,49.0895,6,0,0,0
0,1405702698,863432,-8.03922,19.152,-25.2335,32.6827,-8.7828,-0.4576,3.20602,9.36085,1.27295,5.26047,-1.03336,49.036,7,0,0,0
0,1405702699,864437,-8.19948,18.6508,-25.6003,32.7178,-8.76281,-0.436996,3.20761,9.34166,2.39261,4.51049,-0.489658,49.1007,7,0,0,0
0,1405702700,865442,-8.36015,18.586,-25.3877,32.5556,-8.80633,-0.416579,3.19639,9.37774,2.12673,5.24216,-0.772436,49.0343,6,0,0,0
0,1405702701,866445,-8.1635,18.6596,-25.4139,32.5682,-8.7882,-0.408334,3.18788,9.35745,0.818713,4.56411,-1.31089,49.0777,7,0,0,0
0,1405702702,867454,-8.11507,18.9018,-25.2661,32.5807,-8.78275,-0.455914,3.21438,9.36359,3.7415,4.86409,-1.52639,49.1284,7,0,0,0
0,1405702703,868462,-8.01264,19.0633,-25.3268,32.6965,-8.7765,-0.418906,3.20222,9.35183,1.02129,4.91873,-0.792585,49.0243,6,0,0,0
0,1405702704,869470,-8.03842,19.0617,-25.399,32.7578,-8.77933,-0.442653,3.19206,9.3521,2.63901,6.17028,-0.906003,49.0069,6,0,0,0
0,1405702705,870477,-8.33561,18.6879,-25.3573,32.5839,-8.79068,-0.369457,3.2247,9.37077,2.31815,3.75343,-1.25338,49.0372,7,0,0,0
0,1405702706,871483,-8.30041,18.8846,-25.1244,32.5078,-8.78174,-0.428471,3.19146,9.3535,2.07745,4.60599,-0.50247,49.094,6,0,0,0
0,1405702707,872495,-8.29162,18.7469,-25.5295,32.7407,-8.78144,-0.3927,3.22051,9.3616,0.949668,5.50499,-2.01972,49.0387,6,0,0,0
0,1405702708,873496,-8.29408,18.918,-25.3675,32.7138,-8.79221,-0.428576,3.19261,9.36372,3.06207,4.24412,0.0754076,49.1026,6,0,0,0
0,1405702709,874502,-8.11244,18.9914,-25.2408,32.6126,-8.77067,-0.380299,3.1787,9.33667,2.26942,4.69202,-1.10398,49.0546,5,0,0,0
0,1405702710,875515,-8.08184,18.8784,-25.227,32.5286,-8.79908,-0.40813,3.22169,9.37921,2.04018,5.1228,-1.37251,49.0798,5,0,0,0
0,1405702711,876516,-8.174,19.059,-25.3002,32.7133,-8.78996,-0.418793,3.2191,9.37024,2.07971,5.52573,-1.16104,49.0826,6,0,0,0
0,1405702712,877525,-8.29788,18.7976,-25.2564,32.559,-8.78274,-0.459028,3.19318,9.35647,2.27677,3.62434,-1.33003,49.082,5,0,0,0
0,1405702713,878530,-8.01882,18.9781,-25.0555,32.4383,-8.78329,-0.432755,3.1991,9.35776,2.45687,4.3636,-1.96225,49.079,6,0,0,0
0,1405702714,879533,-8.15914,18.5527,-25.3292,32.4398,-8.77606,-0.442612,3.22584,9.36061,1.39767,4.63738,-1.64234,49.0815,7,0,0,0
0,1405702715,880538,-8.40264,18.4788,-25.2327,32.3846,-8.78873,-0.439092,3.19854,9.36297,1.75273,6.20319,-1.63227,49.1212,7,0,0,0
0,1405702716,881550,-8.09553,19.2872,-25.1003,32.6735,-8.79843,-0.418641,3.20617,9.37375,1.79698,5.31053,-0.62359,49.0507,7,0,0,0
0,1405702717,882561,-7.95805,18.789,-25.0218,32.287,-8.7407,-0.442461,3.24084,9.33267,3.1367,5.49327,-2.10837,49.0611,6,0,0,0
0,1405702718,883566,-8.23543,18.7776,-25.549,32.7593,-8.80458,-0.399527,3.20107,9.37694,2.0789,5.30716,-0.823787,49.0338,7,0,0,0
0,1405702719,884576,-8.218,18.8286,-25.4251,32.6877,-8.78533,-0.441454,3.19335,9.35812,1.84292,5.57496,-1.62111,49.1364,7,0,0,0
0,1405702720,885583,-8.19092,18.9402,-25.5621,32.8518,-8.75946,-0.434967,3.20071,9.33606,2.94857,5.23868,-0.708289,49.0277,7,0,0,0
0,1405702721,886589,-8.26769,18.875,-25.6393,32.8937,-8.79581,-0.408978,3.1872,9.36439,2.67474,4.31596,-1.44903,49.1729,7,0,0,0
0,1405702722,887597,-8.37389,18.8272,-25.4745,32.7648,-8.80367,-0.448503,3.18549,9.373,2.29876,4.45123,-0.381503,49.1469,5,0,0,0
0,1405702723,888600,-8.11951,18.8767,-25.4332,32.6972,-8.76584,-0.402834,3.20423,9.34181,1.03915,4.79436,-1.79339,49.1498,7,0,0,0
0,1405702724,889606,-7.99153,18.7822,-25.2433,32.4632,-8.78758,-0.413305,3.22844,9.37097,1.27704,5.41455,-1.89697,49.09,6,0,0,0
0,1405702725,890609,-8.29169,19.0265,-25.5231,32.8966,-8.75935,-0.402856,3.19432,9.33232,1.52694,4.62548,-1.70011,49.1859,7,0,0,0
0,1405702726,891610,-8.38328,18.705,-25.6409,32.8271,-8.77463,-0.444396,3.18865,9.34661,1.81772,5.05791,-0.669062,49.1839,7,0,0,0
0,1405702727,892618,-8.28071,18.8326,-25.4482,32.7238,-8.79935,-0.442376,3.21304,9.37805,1.15286,4.99074,-0.603713,49.1141,6,0,0,0
0,1405702728,893626,-8.34449,18.6376,-25.4953,32.665,-8.77212,-0.433952,3.17829,9.34024,-0.209076,5.47192,-1.42511,49.1748,6,0,0,0
0,1405702729,894631,-8.09703,18.8541,-25.3775,32.6352,-8.7727,-0.433134,3.18902,9.34439,1.99988,3.6765,-0.903107,49.1308,6,0,0,0
0,1405702730,895641,-8.25462,18.5688,-25.4407,32.5602,-8.78234,-0.44079,3.22537,9.36626,1.81029,3.87196,-0.54657,49.1888,6,0,0,0
0,1405702731,896646,-8.1428,18.9446,-24.9187,32.3442,-8.79341,-0.411291,3.2534,9.38498,1.48894,5.28749,-0.919438,49.1899,7,0,0,0
0,1405702732,897653,-8.45465,18.8043,-25.0574,32.4493,-8.79428,-0.42124,3.20981,9.37121,1.1642,5.46038,-1.05959,49.0892,7,0,0,0
0,1405702733,898654,-8.25424,18.8377,-25.5556,32.8036,-8.80184,-0.40377,3.21616,9.37972,0.451104,5.09863,-2.25046,49.198,7,0,0,0
0,1405702734,899663,-8.1819,19.0368,-25.2193,32.6398,-8.78142,-0.424432,3.2044,9.35744,2.02108,4.78982,-0.985701,49.1905,6,0,0,0
0,1405702735,900667,-8.09944,18.6394,-25.2281,32.3958,-8.79493,-0.435105,3.22391,9.37729,2.6112,4.92768,-0.773845,49.185,5,0,0,0
0,1405702736,901671,-8.27472,18.7097,-25.419,32.6289,-8.78818,-0.431136,3.22902,9.37254,0.564338,4.79686,-1.47959,49.2841,8,0,0,0
0,1405702737,902675,-8.26047,18.724,-25.1866,32.4529,-8.79307,-0.398812,3.1907,9.36256,2.02103,4.99978,-1.507,49.2172,5,0,0,0
0,1405702738,903677,-8.1707,19.0074,-25.2592,32.6507,-8.79479,-0.437803,3.21162,9.37307,2.15882,5.75525,-0.383065,49.2104,7,0,0,0
0,1405702739,904685,-8.16541,18.802,-25.4585,32.6852,-8.81184,-0.430839,3.21713,9.39064,1.76195,4.16869,-1.14925,49.2003,6,0,0,0
0,1405702740,905692,-8.33941,18.6799,-25.3626,32.5845,-8.76122,-0.422639,3.19553,9.33536,1.6912,5.51541,-0.344048,49.2068,6,0,0,0
0,1405702741,906700,-8.33793,18.9652,-25.0271,32.4893,-8.78278,-0.431155,3.2137,9.36221,0.276919,3.78585,-2.27834,49.2419,6,0,0,0
0,1405702742,907707,-8.24319,18.6923,-25.5134,32.6846,-8.79332,-0.430644,3.2138,9.37211,1.10806,5.33887,-0.708218,49.1549,7,0,0,0
0,1405702743,908711,-8.23516,19.0061,-25.1989,32.6196,-8.79083,-0.437508,3.23719,9.37814,0.773575,4.03904,-1.4362,49.2597,6,0,0,0
0,1405702744,909716,-8.34363,18.694,-25.359,32.5908,-8.80107,-0.413234,3.19193,9.37113,2.77165,5.658,-2.10599,49.2727,6,0,0,0
0,1405702745,910718,-8.45378,18.7429,-25.3615,32.6492,-8.77583,-0.41635,3.20511,9.35207,2.3094,4.3536,-1.19974,49.2136,6,0,0,0
0,1405702746,911726,-8.10544,18.7872,-25.5936,32.7672,-8.79106,-0.433802,3.22364,9.37351,1.17141,4.38325,-0.640523,49.2829,6,0,0,0
0,1405702747,912735,-8.13934,19.055,-25.369,32.7556,-8.77842,-0.415075,3.23894,9.36609,1.60187,4.84525,-0.924351,49.1402,6,0,0,0
0,1405702748,913746,-8.06847,18.7212,-25.4681,32.6222,-8.7764,-0.411799,3.20911,9.35378,1.67832,4.50938,-1.46219,49.1889,7,0,0,0
0,1405702749,914751,-8.37216,18.7744,-25.4787,32.7374,-8.76189,-0.395932,3.20292,9.33735,2.96752,4.99798,-1.68789,49.2839,7,0,0,0
0,1405702750,915752,-8.19115,18.821,-25.6735,32.8702,-8.79231,-0.420142,3.19265,9.36345,0.181618,4.56659,0.204329,49.1642,7,0,0,0
0,1405702751,916761,-8.15197,18.8349,-25.2627,32.5486,-8.77945,-0.413349,3.21539,9.35886,3.05527,4.80127,-1.25133,49.274,6,0,0,0
0,1405702752,917765,-8.05666,18.9135,-25.0061,32.3719,-8.78448,-0.427332,3.22023,9.36588,1.86637,6.29931,-1.75535,49.2167,7,0,0,0
0,1405702753,918767,-8.19605,18.9225,-25.3459,32.6749,-8.76756,-0.433052,3.19126,9.34033,1.3334,4.60981,-0.84044,49.2043,7,0,0,0
0,1405702754,919785,-8.18032,18.2784,-25.5207,32.4395,-8.77259,-0.454433,3.21036,9.35261,2.46031,4.98276,-1.51506,49.256,7,0,0,0
0,1405702755,920790,-7.93698,18.9195,-24.9865,32.3306,-8.78728,-0.425478,3.18527,9.35646,1.26685,5.48757,-1.11991,49.2036,7,0,0,0
0,1405702756,921794,-8.0536,18.6881,-25.6858,32.7699,-8.78111,-0.409832,3.18615,9.35026,1.02003,4.26346,-1.38458,49.2281,6,0,0,0
0,1405702757,922809,-8.41566,18.5082,-25.5865,32.681,-8.76586,-0.450056,3.20397,9.34388,1.01495,4.32422,-1.30507,49.1745,5,0,0,0
0,1405702758,923814,-8.4562,18.9609,-25.0563,32.5398,-8.78849,-0.435,3.19759,9.36223,2.0623,5.25455,-1.81099,49.1742,6,0,0,0
0,1405702759,924829,-8.313,18.8328,-25.226,32.5597,-8.77033,-0.440753,3.19451,9.3444,0.474916,4.71325,-1.43372,49.3056,5,0,0,0
0,1405702760,925830,-8.09923,18.7542,-25.4237,32.6141,-8.78251,-0.425453,3.18145,9.35068,1.99865,5.78621,-0.552753,49.329,6,0,0,0
0,1405702761,926831,-8.32606,18.9395,-25.1794,32.5888,-8.78473,-0.429211,3.22266,9.36703,0.660335,4.88986,-2.24794,49.192,7,0,0,0
0,1405702762,927837,-8.50908,18.5949,-25.3098,32.5386,-8.79241,-0.429704,3.19574,9.36503,3.55468,5.37601,-1.8826,49.1872,6,0,0,0
0,1405702763,928840,-8.25369,18.8918,-25.4321,32.7386,-8.79776,-0.442535,3.21369,9.37679,2.3754,5.10304,-0.567984,49.2553,6,0,0,0
0,1405702764,929844,-8.10581,19.0429,-25.4887,32.8331,-8.75979,-0.423291,3.22774,9.34513,0.527337,4.43952,-1.42602,49.1948,7,0,0,0
