0,1405686888,utime,,bx(uT),by(uT),bz(uT),,B(uT),ax,,,,ay,,az,,,,,A,,,,,gx,,,gy,,,,gz,,,T(C),rate,,track,tilt,roll
0,1405686888,mins,,-1000,-1000,-1000,,,,,0,,,,-2000,-2000,-2000,,0,,,-2000,,-2000,-2000,-2000,,0,,0,,-180,-180
0,1405686888,maxs,,,1000,,1000,,1000,,,,1000,,,2000,,2000,,2000,2000,,2000,,,2000,,2000,,2000,,37000,360,180,180
0,1405686888,attr,,,,,F,,,,,F,,,,,F,,,,,,F,,,,,,F,,,,,F,,,,F,,,,,F,,,,,F,,,,,,F,,,,,F,,,,,F,,,,,I,F,F,F
0,1405686889,2051,-0.703364,3.36391,-4.14373,5.38341,-1.4649,-0.0725853,0.534492,1.56106,-0.255072,1.04348,-0.0463768,2.23778,0,0,0,0
0,1405686890,3053,-3.57488,20.6379,-24.4723,32.2117,-8.75694,-0.40207,3.20931,9.33517,2.15337,4.63897,-1.92797,22.8987,12,0,0,0
0,1405686891,4058,-3.24031,21.0593,-24.3759,32.3755,-8.73228,-0.428346,3.16855,9.29925,2.67096,3.94717,-1.64506,22.8515,11,0,0,0
0,1405686892,5066,-3.71127,20.4393,-24.6813,32.26,-8.78197,-0.382081,3.18685,9.35014,2.79123,5.68962,-1.01975,22.9579,10,0,0,0
0,1405686893,6068,-3.35386,20.5859,-24.5245,32.1944,-8.78111,-0.419763,3.20498,9.35713,1.63149,5.82255,-1.68056,22.9679,12,0,0,0
0,1405686894,7071,-3.82507,20.2545,-24.6457,32.1292,-8.7725,-0.416559,3.17113,9.33736,1.68011,3.63114,-0.903739,22.9153,12,0,0,0
0,1405686895,8075,-3.35829,21.0991,-24.609,32.5891,-8.78373,-0.471922,3.18717,9.35599,2.68978,4.27556,-1.28031,23.1006,10,0,0,0
0,1405686896,9083,-3.27279,20.5953,-24.3194,32.0361,-8.77311,-0.379773,3.21394,9.351,1.10488,6.28276,-1.91774,23.1273,8,0,0,0
0,1405686897,10095,-3.41027,20.6424,-24.4088,32.1485,-8.75261,-0.420155,3.20399,9.33007,2.89297,4.66754,-1.08203,23.2582,8,0,0,0
0,1405686898,11100,-3.07704,20.3987,-24.7587,32.2268,-8.76727,-0.428079,3.17527,9.33437,2.4455,4.51757,0.592286,23.2269,7,0,0,0
0,1405686899,12108,-3.20226,20.7341,-24.5328,32.2803,-8.77665,-0.467963,3.17782,9.34597,1.93881,3.43401,-0.541078,23.2353,8,0,0,0
0,1405686900,13116,-3.41549,20.3253,-24.804,32.2494,-8.77483,-0.401564,3.21376,9.35346,3.3336,4.59497,-0.51734,23.2266,7,0,0,0
0,1405686901,14119,-3.30436,20.7302,-24.3914,32.1807,-8.77843,-0.410972,3.18647,9.3479,3.17598,3.79093,-1.68497,23.4012,8,0,0,0
0,1405686902,15125,-3.35387,20.7077,-24.3478,32.1383,-8.76811,-0.431087,3.15953,9.32996,2.53136,5.15066,-1.63414,23.2083,8,0,0,0
0,1405686903,16135,-3.45922,20.8147,-24.4753,32.315,-8.76399,-0.425405,3.15511,9.32434,1.11472,4.71801,0.645667,23.4753,7,0,0,0
0,1405686904,17137,-3.17347,20.5991,-24.7384,32.3478,-8.77722,-0.416219,3.20009,9.35165,0.70991,4.46533,-2.86433,23.3684,8,0,0,0
0,1405686906,19320,-3.65237,19.9351,-25.6508,32.6911,-8.79047,-0.399652,3.17291,9.35412,2.89225,6.26302,-1.57043,23.396,1,0,0,0
0,1405686907,20321,-8.16204,19.4166,-30.5069,37.0715,-8.76316,-0.413193,3.1869,9.33381,2.31193,4.60764,-1.95798,23.6223,7,0,0,0
0,1405686908,21324,-7.04126,20.0786,-27.9344,35.115,-8.76466,-0.371892,3.17172,9.32831,2.78144,5.22635,-1.57744,23.5437,7,0,0,0
0,1405686909,22330,-7.18699,20.6686,-27.4069,35.0711,-8.76268,-0.390483,3.16744,9.32576,2.94118,5.81692,-1.82703,23.6268,8,0,0,0
0,1405686911,24379,-6.65494,20.3931,-26.9665,34.4581,-8.77838,-0.4488,3.16918,9.34372,1.46884,4.80882,-1.52421,23.6286,5,0,0,0
0,1405686912,25380,-6.83293,20.4176,-27.5141,34.937,-8.7766,-0.421229,3.17944,9.34425,2.28806,5.38286,-2.29865,23.7024,8,0,0,0
0,1405686913,26386,-7.72991,20.1775,-27.5413,35.0059,-8.77654,-0.426019,3.19077,9.34827,3.12653,4.35328,-1.62079,23.8329,8,0,0,0
0,1405686914,27393,-7.33859,20.3273,-27.253,34.7819,-8.7876,-0.424805,3.20772,9.36439,1.85761,4.87365,-3.379,23.7885,7,0,0,0
0,1405686916,29796,-7.23282,19.933,-27.3178,34.5818,-8.77757,-0.438288,3.18149,9.34664,1.92839,4.35315,-2.17668,23.8198,2,0,0,0
0,1405686917,30797,-7.6811,19.6864,-26.7585,34.0964,-8.80191,-0.423001,3.18209,9.36901,0.99263,3.96053,-0.864558,23.8415,7,0,0,0
0,1405686918,31809,-7.14569,20.199,-26.9269,34.411,-8.76791,-0.41238,3.1974,9.34183,1.7756,4.08269,-1.60328,23.9131,6,0,0,0
0,1405686920,33053,-7.46201,20.0321,-26.5036,34.0501,-8.78075,-0.405489,3.1919,9.35169,3.29144,5.00137,-0.979766,23.9339,4,0,0,0
0,1405686921,34060,-8.01583,19.6736,-27.2224,34.5306,-8.77293,-0.433545,3.21215,9.35255,1.85311,3.70272,-0.642563,23.9437,7,0,0,0
0,1405686922,35062,-7.50261,20.084,-27.604,34.9519,-8.77665,-0.439203,3.20692,9.35451,1.33558,5.03606,-0.272736,23.9782,4,0,0,0
0,1405686923,36067,-7.2412,19.8823,-27.6899,34.8493,-8.77458,-0.420116,3.17621,9.3412,2.31965,5.29696,-1.35994,24.0294,6,0,0,0
0,1405686924,37071,-7.37974,19.7476,-27.8822,34.9549,-8.7804,-0.383564,3.18015,9.34644,1.80866,4.20643,-2.20044,24.0415,7,0,0,0
0,1405686925,38080,-7.26816,19.8688,-27.538,34.7266,-8.76756,-0.411054,3.18471,9.3371,0.159263,5.48008,-2.08497,24.1059,6,0,0,0
0,1405686926,39084,-7.20504,20.2724,-27.6907,35.0665,-8.76528,-0.391926,3.18169,9.33311,1.52805,5.13346,-2.09564,24.0725,8,0,0,0
0,1405686927,40088,-7.39192,20.1973,-27.3044,34.7577,-8.7783,-0.408926,3.20309,9.35337,1.75385,4.81068,0.242998,24.1599,8,0,0,0
0,1405686928,41093,-7.34831,20.2781,-27.3538,34.8343,-8.77481,-0.404439,3.19722,9.3479,2.97234,5.21973,-0.817702,24.1909,7,0,0,0
0,1405686929,42095,-7.17168,20.5948,-27.2053,34.867,-8.77,-0.393828,3.16612,9.33233,1.36701,3.58767,-1.89715,24.1422,7,0,0,0
0,1405686930,43098,-7.29013,20.3732,-27.6983,35.1484,-8.77266,-0.399709,3.19781,9.34587,1.21677,5.89476,-0.503388,24.1376,7,0,0,0
0,1405686931,44100,-6.9716,20.2858,-27.1083,34.5685,-8.76472,-0.39973,3.17925,9.33208,2.68172,6.16402,-1.04455,24.152,8,0,0,0
0,1405686932,45109,-6.91518,20.7011,-27.3204,34.9679,-8.76174,-0.451673,3.17953,9.33175,0.252623,6.24913,-1.22989,24.1815,6,0,0,0
0,1405686933,46116,-7.23166,20.6737,-27.1614,34.8919,-8.77786,-0.388178,3.18454,9.34574,1.66439,4.99624,-2.60496,24.2418,8,0,0,0
0,1405686934,47121,-7.06974,20.5964,-26.9562,34.653,-8.77574,-0.40646,3.18892,9.34602,1.6877,5.48959,-1.60412,24.2582,8,0,0,0
0,1405686935,48130,-6.93588,20.3013,-27.2285,34.6647,-8.77553,-0.386281,3.19458,9.3469,2.41597,4.88844,-2.01217,24.2644,7,0,0,0
0,1405686936,49131,-6.91482,20.3781,-27.3578,34.807,-8.76877,-0.403482,3.19832,9.34256,3.61022,4.37182,-1.21252,24.3289,8,0,0,0
0,1405686937,50138,-6.92836,20.5955,-27.2996,34.8919,-8.77105,-0.426898,3.17211,9.3368,3.42306,5.69316,-1.60687,24.2653,7,0,0,0
0,1405686938,51143,-6.97113,20.4776,-26.8822,34.5048,-8.7772,-0.427128,3.19277,9.34962,3.3514,4.64598,-1.51481,24.2834,9,0,0,0
0,1405686939,52150,-7.02686,20.3127,-27.2127,34.6773,-8.76144,-0.422065,3.20263,9.33798,2.01332,4.38855,-2.09564,24.3095,8,0,0,0
0,1405686940,53158,-6.88347,20.3921,-27.2072,34.6908,-8.76225,-0.391504,3.17764,9.32887,2.87177,5.05078,-1.39233,24.365,8,0,0,0
0,1405686941,54162,-6.9525,20.5237,-27.318,34.8688,-8.76458,-0.428685,3.15444,9.32481,1.90807,6.40451,-1.37391,24.375,8,0,0,0
0,1405686943,56347,-7.00357,20.2968,-26.9278,34.44,-8.78622,-0.407715,3.19749,9.35884,1.29883,4.39481,-1.6816,24.4404,1,0,0,0
0,1405686944,57355,-7.03379,20.4923,-26.7795,34.4464,-8.77354,-0.415959,3.1662,9.33664,1.62562,5.24406,-1.81233,24.5636,7,0,0,0
0,1405686945,58360,-6.99834,20.4982,-27.0842,34.68,-8.75683,-0.43331,3.18468,9.32803,1.65368,4.50806,-2.1694,24.5303,7,0,0,0
0,1405686946,59366,-7.14273,20.5154,-27.0382,34.6838,-8.77269,-0.427009,3.17937,9.34081,1.66485,5.09068,-1.55547,24.4793,8,0,0,0
0,1405686947,60368,-7.27629,20.1562,-27.2259,34.6477,-8.77235,-0.41814,3.17603,9.33896,2.06896,5.53285,-1.49775,24.6031,7,0,0,0
0,1405686948,61376,-6.95507,20.315,-27.4247,34.8308,-8.775,-0.416368,3.19416,9.34755,0.427436,5.07762,-1.91312,24.5938,7,0,0,0
0,1405686949,62377,-7.18109,20.3415,-27.3833,34.8596,-8.78913,-0.418449,3.19194,9.36014,1.93148,4.96518,-2.30737,24.7483,6,0,0,0
0,1405686950,63384,-6.97206,20.3447,-27.4386,34.8626,-8.76722,-0.412422,3.18416,9.33666,1.52238,4.66094,-0.473466,24.6925,9,0,0,0
0,1405686951,64389,-6.86305,20.4019,-27.2913,34.7586,-8.77962,-0.405797,3.18374,9.34787,0.898743,6.02432,-1.19801,24.7545,8,0,0,0
0,1405686952,65392,-7.17313,20.2837,-27.1877,34.6706,-8.75989,-0.419683,3.20684,9.33786,1.98966,5.41278,-2.16043,24.8218,7,0,0,0
0,1405686953,66397,-7.05152,20.3895,-27.5952,35.0279,-8.77138,-0.408438,3.19831,9.34522,1.7732,4.78681,-2.2748,24.809,8,0,0,0
0,1405686954,67400,-7.22551,20.5503,-27.1008,34.7703,-8.76708,-0.421885,3.16427,9.33019,1.78811,6.58629,0.0998153,24.9674,7,0,0,0
0,1405686955,68407,-7.15309,20.1823,-27.0214,34.4768,-8.77329,-0.41193,3.18395,9.34226,1.29453,5.02359,-0.576082,24.9512,8,0,0,0
0,1405686956,69415,-7.41709,20.2528,-27.3193,34.8071,-8.78832,-0.417647,3.17491,9.35356,2.9128,4.75946,-0.954526,24.9795,8,0,0,0
0,1405686958,71604,-7.11495,20.4059,-27.2462,34.7761,-8.78049,-0.410452,3.15037,9.33758,1.33223,4.62767,-2.0022,24.9983,6,0,0,0
0,1405686959,72611,-7.35285,19.9078,-27.1622,34.4699,-8.76986,-0.408738,3.1901,9.341,2.36718,5.33974,-1.31609,25.0752,8,0,0,0
0,1405686960,73614,-7.04263,20.4451,-27.3994,34.9045,-8.78624,-0.419239,3.16973,9.34991,2.03783,5.79247,-1.15508,25.0365,8,0,0,0
0,1405686961,74620,-6.72718,20.4944,-26.7001,34.3245,-8.77161,-0.402367,3.21095,9.3495,1.70513,7.3992,-1.3199,25.1211,8,0,0,0
0,1405686963,76113,-7.3066,20.2652,-27.1544,34.6616,-8.77544,-0.433637,3.17616,9.34261,3.28903,4.20935,-1.51311,25.1717,4,0,0,0
0,1405686964,77114,-6.94339,20.5996,-27.0044,34.6669,-8.76368,-0.422276,3.18581,9.33433,2.06093,5.66029,-1.41545,25.2031,7,0,0,0
0,1405686965,78115,-7.26476,20.4629,-27.1637,34.776,-8.77506,-0.414004,3.22291,9.35736,1.78246,4.46665,-1.55791,25.2513,8,0,0,0
0,1405686966,79118,-6.922,20.598,-27.1636,34.7858,-8.76795,-0.414402,3.18908,9.33911,1.05348,5.18048,-1.639,25.269,8,0,0,0
0,1405686967,80125,-7.0444,20.3545,-27.1806,34.6802,-8.78385,-0.405391,3.19436,9.35544,2.70224,5.18782,-1.99928,25.2808,8,0,0,0
0,1405686968,81132,-7.09152,20.4668,-27.067,34.667,-8.75511,-0.430637,3.18834,9.32754,0.537039,5.06662,-1.64865,25.3008,8,0,0,0
0,1405686969,82134,-7.05259,20.3108,-26.9065,34.4416,-8.75632,-0.406841,3.15748,9.3171,2.43466,6.13019,-1.71497,25.3425,7,0,0,0
0,1405686970,83138,-7.11563,20.1876,-27.2866,34.6804,-8.7805,-0.428155,3.17186,9.34566,3.26552,5.5624,-1.13724,25.2441,7,0,0,0
0,1405686971,84144,-7.04542,20.3611,-27.1325,34.6465,-8.77684,-0.425762,3.19401,9.34964,2.74832,6.48652,-1.07484,25.3631,6,0,0,0
0,1405686972,85154,-7.19692,20.3747,-26.976,34.5634,-8.78595,-0.407828,3.19476,9.35766,1.44656,5.57472,-1.96673,25.397,8,0,0,0
0,1405686973,86155,-6.80504,20.4909,-26.9235,34.5117,-8.76944,-0.412797,3.16966,9.33382,1.7353,4.90211,-1.02422,25.4198,8,0,0,0
0,1405686974,87157,-7.21164,20.2379,-27.0259,34.5251,-8.77408,-0.40397,3.19233,9.34552,2.74958,6.16452,-1.3787,25.4684,8,0,0,0
0,1405686975,88162,-7.02274,20.2429,-26.9859,34.4577,-8.75239,-0.423748,3.18831,9.32466,2.38015,4.61773,-2.06869,25.5246,7,0,0,0
0,1405686976,89167,-7.05287,20.3128,-27.3115,34.7601,-8.76509,-0.423487,3.17285,9.3313,2.71956,4.67124,-1.47546,25.4666,8,0,0,0
0,1405686977,90172,-6.83859,20.7659,-27.1598,34.8661,-8.75906,-0.433079,3.1918,9.33254,1.15487,4.66564,-2.70762,25.476,8,0,0,0
0,1405686978,91175,-7.19101,20.1883,-26.7888,34.3062,-8.77873,-0.431818,3.1677,9.34275,2.22675,5.0468,-0.754476,25.5404,8,0,0,0
0,1405686979,92181,-6.89505,20.4028,-27.0211,34.5537,-8.76965,-0.434909,3.18833,9.34138,1.48164,5.98847,-3.06961,25.623,7,0,0,0
0,1405686980,93183,-6.89241,20.6214,-27.1879,34.8128,-8.78438,-0.411983,3.1935,9.35594,2.13789,5.40707,-1.00223,25.5738,8,0,0,0
0,1405686981,94187,-6.87853,20.7555,-27.3246,34.9962,-8.76286,-0.406084,3.15363,9.32191,2.63863,5.4742,-1.88263,25.566,7,0,0,0
0,1405686982,95194,-7.22388,20.1871,-26.8878,34.3898,-8.78561,-0.415719,3.19689,9.35841,1.57348,5.90674,-1.67225,25.5762,8,0,0,0
0,1405686983,96911,-7.34274,20.3649,-27.1227,34.7028,-8.74825,-0.407689,3.19672,9.32294,0.912659,4.89012,-3.15294,25.6996,1,0,0,0
0,1405686984,97917,-7.1406,20.3312,-27.0978,34.6214,-8.76824,-0.430933,3.20624,9.346,2.29117,5.3643,-1.41655,25.6381,7,0,0,0
0,1405686985,98921,-6.85782,20.6209,-26.9055,34.5855,-8.76141,-0.41631,3.17832,9.32938,1.39522,5.83702,-1.88252,25.6096,8,0,0,0
0,1405686986,99925,-6.9278,20.5248,-26.9459,34.5737,-8.764,-0.466464,3.18134,9.33522,0.618265,5.38441,-1.45792,25.6503,8,0,0,0
0,1405686987,100932,-6.8794,20.6258,-26.6908,34.426,-8.78012,-0.439623,3.16957,9.34505,2.38769,4.99879,-1.99014,25.6386,7,0,0,0
0,1405686988,101933,-7.15446,20.173,-27.3373,34.7198,-8.77743,-0.401294,3.1859,9.34635,1.88151,4.88081,-1.11357,25.855,7,0,0,0
0,1405686989,102939,-7.03786,20.3325,-27.0569,34.569,-8.7834,-0.41374,3.16778,9.34634,2.35222,5.50133,-1.93017,25.8533,7,0,0,0
0,1405686990,103943,-7.12882,20.649,-26.8867,34.6424,-8.78164,-0.406843,3.19232,9.35273,2.63464,4.85923,-1.39521,25.769,7,0,0,0
0,1405686991,104946,-6.80102,20.5013,-27.2458,34.7691,-8.75519,-0.456424,3.18469,9.32759,2.34228,5.23747,-1.28658,25.9162,7,0,0,0
0,1405686992,105951,-7.09575,20.3325,-26.8607,34.4276,-8.78357,-0.445308,3.18237,9.35291,-0.272929,5.86381,-1.88532,25.8416,5,0,0,0
0,1405686993,106958,-7.00797,20.5364,-27.1348,34.7441,-8.78401,-0.422942,3.16716,9.34712,1.25341,5.38629,-1.0067,25.8543,7,0,0,0
0,1405686994,107962,-7.26632,20.1884,-27.3139,34.7336,-8.77007,-0.435787,3.16746,9.33472,0.579414,5.75859,-2.15139,25.8605,8,0,0,0
0,1405686995,108963,-7.32573,20.2358,-26.9121,34.4589,-8.77335,-0.423477,3.18605,9.34355,1.94238,4.92524,-1.96078,25.9577,9,0,0,0
0,1405686996,109970,-7.22399,20.1747,-26.9513,34.4323,-8.77713,-0.405003,3.1918,9.34824,1.87835,4.77131,-0.332487,25.9212,8,0,0,0
0,1405686997,110978,-7.02512,20.2174,-27.3031,34.6923,-8.76116,-0.41994,3.16473,9.32469,2.23674,5.77269,-1.35248,26.0709,7,0,0,0
0,1405686998,111984,-6.8756,20.1988,-26.998,34.4116,-8.78513,-0.424678,3.16601,9.34786,2.7314,5.37427,-1.2592,26.0139,7,0,0,0
0,1405686999,112987,-7.3642,20.4161,-26.8567,34.5302,-8.76763,-0.363729,3.16187,9.32743,3.10955,4.96911,-1.62579,25.996,7,0,0,0
0,1405687000,113994,-6.83658,20.3537,-26.7686,34.3158,-8.77033,-0.386558,3.20203,9.34457,1.85339,7.26303,-2.14862,26.093,8,0,0,0
0,1405687002,115001,-7.47479,20.373,-27.013,34.6502,-8.79591,-0.409002,3.18999,9.36543,1.68838,5.66965,-1.17788,26.1306,8,0,0,0
0,1405687003,116007,-6.604,20.6582,-26.7774,34.4587,-8.76849,-0.421605,3.17955,9.33668,1.56583,5.28413,-1.29945,26.171,8,0,0,0
0,1405687004,117013,-7.18113,20.6727,-26.8831,34.6645,-8.77787,-0.390455,3.18151,9.34481,2.66422,5.68937,-0.497041,26.1334,8,0,0,0
0,1405687005,118015,-7.3287,20.3378,-27.028,34.6099,-8.76702,-0.419239,3.1778,9.3346,1.81067,5.98806,-0.978124,26.2333,7,0,0,0
0,1405687006,119018,-7.03918,20.8374,-27.3388,35.0879,-8.779,-0.423024,3.21558,9.35894,1.87848,6.27639,0.071783,26.1837,7,0,0,0
0,1405687007,120022,-6.78361,20.7814,-27.0261,34.7606,-8.76362,-0.415489,3.18501,9.3337,1.78962,5.77764,-2.77586,26.3117,7,0,0,0
0,1405687008,121031,-6.74901,20.1777,-27.2171,34.5465,-8.79207,-0.413035,3.17662,9.35745,2.31312,5.87909,-1.14456,26.4177,8,0,0,0
0,1405687009,122033,-7.24043,20.2853,-26.7255,34.3245,-8.76885,-0.417987,3.15909,9.32991,1.947,5.72092,-1.62275,26.3021,8,0,0,0
0,1405687010,123038,-6.79293,20.2046,-27.0324,34.4256,-8.77206,-0.413316,3.20744,9.3492,1.85202,4.77905,-1.37024,26.3655,8,0,0,0
0,1405687011,124044,-6.97631,20.3054,-27.027,34.5171,-8.76007,-0.405972,3.17943,9.32804,2.12305,5.43845,-0.783822,26.4019,8,0,0,0
0,1405687012,125051,-6.80387,20.4245,-26.8405,34.4073,-8.76276,-0.41715,3.17024,9.32793,2.8808,5.79675,-1.4179,26.3526,8,0,0,0
0,1405687013,126056,-7.09732,20.0928,-27.2785,34.6152,-8.77766,-0.430777,3.19143,9.34977,2.12037,4.97292,-1.02672,26.4659,8,0,0,0
0,1405687014,127064,-6.69971,20.7032,-27.1861,34.8223,-8.78399,-0.428118,3.19348,9.35629,1.34957,5.26335,-1.36173,26.4999,8,0,0,0
0,1405687015,128067,-6.95577,20.6794,-26.93,34.659,-8.77095,-0.423647,3.15365,9.3303,1.07013,5.39875,-1.93595,26.4118,7,0,0,0
0,1405687016,129075,-6.64385,20.4275,-27.0927,34.5751,-8.78072,-0.401479,3.19813,9.35363,1.63506,5.51102,-1.06348,26.4139,7,0,0,0
0,1405687017,130080,-7.12337,20.6568,-26.8844,34.6442,-8.77287,-0.414502,3.18202,9.34132,1.05838,5.73618,-2.53468,26.5775,8,0,0,0
0,1405687018,131081,-6.8934,20.4115,-27.1242,34.6391,-8.7543,-0.421377,3.17187,9.32073,1.45892,5.26568,-2.16247,26.6665,7,0,0,0
0,1405687019,132089,-7.09077,20.6593,-26.8444,34.6078,-8.78461,-0.411609,3.17947,9.35135,2.51956,5.64735,-1.55505,26.5881,9,0,0,0
0,1405687020,133094,-6.93757,20.3326,-26.8894,34.4178,-8.75394,-0.441656,3.1703,9.32081,1.46022,5.3243,-1.52685,26.7125,8,0,0,0
0,1405687021,134095,-7.16658,20.2687,-27.0359,34.5416,-8.76152,-0.412662,3.17018,9.32655,1.1464,5.71137,-1.70305,26.6917,7,0,0,0
0,1405687022,135101,-7.07864,20.1853,-27.1463,34.5611,-8.78388,-0.402252,3.17866,9.34999,2.0693,4.80414,-1.28194,26.6826,7,0,0,0
0,1405687023,136103,-7.22764,20.5415,-26.6766,34.4359,-8.78525,-0.406292,3.15433,9.3432,2.15526,5.37667,-1.20336,26.8327,7,0,0,0
0,1405687024,137113,-7.17546,20.3448,-27.1871,34.7064,-8.75765,-0.402556,3.16219,9.31975,1.30132,6.51638,-1.90759,26.8302,8,0,0,0
0,1405687025,138114,-7.01015,20.5332,-27.0547,34.6801,-8.76083,-0.402502,3.15811,9.32137,0.917831,5.58195,-1.15024,26.8264,7,0,0,0
0,1405687026,139118,-7.08222,20.7193,-27.104,34.8436,-8.78467,-0.410863,3.17136,9.34862,1.14423,5.71811,-1.46796,26.7335,7,0,0,0
0,1405687027,140120,-7.31916,20.1369,-26.9822,34.4544,-8.79065,-0.400153,3.18995,9.3601,2.45708,5.02121,-0.557085,26.7987,7,0,0,0
0,1405687028,141128,-7.24029,21.0015,-26.7851,34.7984,-8.78158,-0.429224,3.19876,9.35588,1.45778,4.31029,-1.30333,26.8006,7,0,0,0
0,1405687029,142130,-6.6194,20.445,-27.0006,34.5087,-8.77639,-0.409801,3.1703,9.34044,2.21516,5.02628,-2.14458,26.8754,8,0,0,0
0,1405687030,143138,-7.13917,19.9299,-26.5668,33.9701,-8.77651,-0.425115,3.17017,9.34119,1.84747,5.22093,-1.4456,26.8883,8,0,0,0
0,1405687031,144146,-7.18143,20.17,-26.6312,34.1705,-8.77507,-0.415227,3.19966,9.34944,2.27671,4.94104,-1.65449,26.8901,7,0,0,0
0,1405687032,145150,-7.17698,20.0027,-26.7091,34.132,-8.77249,-0.41928,3.17897,9.34014,1.64927,5.71889,-2.15323,26.9374,7,0,0,0
0,1405687033,146157,-7.28053,20.2,-27.0217,34.5141,-8.77932,-0.428207,3.14507,9.33549,1.28014,5.89016,-1.10051,26.9287,7,0,0,0
0,1405687034,147166,-7.24236,20.33,-26.58,34.2382,-8.78535,-0.448633,3.19792,9.36004,0.807948,4.76577,-0.882485,26.9504,7,0,0,0
0,1405687035,148174,-6.92386,20.1868,-27.1145,34.5057,-8.76649,-0.419044,3.18989,9.33822,1.41147,6.51056,-2.12679,26.963,7,0,0,0
0,1405687036,149177,-6.80058,20.2777,-27.1319,34.5481,-8.76723,-0.428988,3.20502,9.34454,1.75808,5.40254,-0.652188,27.1054,7,0,0,0
0,1405687037,150186,-6.98557,20.1883,-26.6403,34.1478,-8.76945,-0.412487,3.18587,9.33934,0.514162,5.99428,-2.02437,26.9349,7,0,0,0
0,1405687038,151191,-6.82237,20.2233,-27.2322,34.5994,-8.78728,-0.3936,3.19225,9.35744,2.72793,6.46446,-1.47107,27.0373,7,0,0,0
0,1405687039,152206,-7.18607,20.9993,-26.9438,34.9082,-8.77316,-0.410157,3.17404,9.33869,1.31496,5.22742,-2.22451,27.0541,7,0,0,0
0,1405687040,153210,-6.8549,20.1863,-27.0483,34.4396,-8.78402,-0.421978,3.1675,9.3472,1.22404,6.50982,-2.15989,26.9933,7,0,0,0
0,1405687041,154212,-7.05865,20.3945,-26.9504,34.5266,-8.76341,-0.41141,3.16523,9.32659,1.85079,5.60169,-3.12198,27.1414,8,0,0,0
0,1405687042,155217,-6.76708,20.3381,-27.0869,34.5417,-8.77565,-0.418886,3.14889,9.3329,2.67642,6.13369,-0.684008,27.084,8,0,0,0
0,1405687043,156219,-7.04,19.9345,-26.8581,34.1805,-8.77575,-0.427139,3.19083,9.3476,3.66082,5.88919,-2.05274,27.0505,7,0,0,0
0,1405687044,157224,-6.585,20.3632,-27.2099,34.6179,-8.79122,-0.421253,3.17428,9.35623,1.28554,5.63273,-1.37348,27.1577,7,0,0,0
0,1405687045,158231,-6.90303,20.1597,-27.1562,34.5184,-8.77287,-0.408668,3.18771,9.343,1.6551,5.14556,-0.884165,27.2373,8,0,0,0
0,1405687046,159242,-7.26679,20.5055,-27.0779,34.7346,-8.78522,-0.402314,3.16245,9.34575,1.70908,5.0142,-1.7356,27.2151,8,0,0,0
0,1405687047,160245,-6.93833,20.0735,-27.3918,34.6611,-8.76189,-0.436158,3.19073,9.33498,3.69553,5.28032,-1.42623,27.2706,7,0,0,0
0,1405687048,161250,-6.93998,20.388,-26.715,34.3151,-8.78667,-0.416006,3.16141,9.34736,2.46127,5.90178,-1.35941,27.1896,7,0,0,0
0,1405687049,162255,-6.97412,20.2169,-26.9103,34.3733,-8.75912,-0.415141,3.17698,9.32672,2.29007,5.00846,-1.02215,27.349,8,0,0,0
0,1405687050,163257,-7.14639,20.7641,-27.187,34.9479,-8.78212,-0.418329,3.19303,9.35394,3.19345,4.98678,-0.26735,27.3224,8,0,0,0
0,1405687051,164265,-6.96687,20.5888,-26.5167,34.2866,-8.77946,-0.420959,3.18441,9.34861,2.09406,6.43806,-1.64728,27.4195,8,0,0,0
0,1405687052,165273,-6.84091,20.3038,-26.8841,34.3772,-8.76835,-0.422094,3.18095,9.33705,0.902579,5.51298,-0.959984,27.3891,6,0,0,0
0,1405687053,166280,-6.74403,20.2372,-27.1724,34.5451,-8.76482,-0.416222,3.19555,9.33846,2.4432,5.04294,-1.61183,27.4638,7,0,0,0
0,1405687054,167285,-6.96994,20.6364,-27.0757,34.7496,-8.76741,-0.426213,3.19589,9.34146,2.75634,4.81767,-0.806803,27.4263,7,0,0,0
0,1405687055,168295,-6.89383,20.1291,-27.0189,34.3908,-8.75788,-0.433817,3.19199,9.33153,2.06637,4.98091,-1.42381,27.4421,8,0,0,0
0,1405687056,169298,-7.32143,20.1034,-26.6735,34.1939,-8.76657,-0.40359,3.18223,9.335,2.82744,5.84184,-1.22282,27.4712,8,0,0,0
0,1405687057,170302,-7.15759,20.4391,-26.9197,34.5494,-8.77369,-0.43342,3.202,9.34978,0.93688,5.05242,-1.87495,27.4533,8,0,0,0
0,1405687058,171309,-6.9868,20.244,-26.6322,34.1747,-8.78558,-0.43773,3.15066,9.3437,1.57638,5.28876,-1.84924,27.501,8,0,0,0
0,1405687059,172312,-6.84766,20.4739,-27.1673,34.7006,-8.77291,-0.423792,3.15088,9.33122,1.44587,6.11559,-1.48152,27.5612,8,0,0,0
0,1405687060,173316,-6.92196,20.3503,-26.9402,34.4648,-8.76744,-0.419797,3.19604,9.34125,1.54949,6.10503,-2.03223,27.6542,7,0,0,0
0,1405687061,174320,-7.06607,20.0187,-27.3622,34.6319,-8.78629,-0.408212,3.17703,9.35195,1.60789,6.0416,-0.764799,27.5712,9,0,0,0
0,1405687062,175327,-7.6476,20.1223,-26.7491,34.3352,-8.7545,-0.422675,3.1536,9.31478,1.82204,5.2338,-0.44787,27.6841,7,0,0,0
0,1405687063,176332,-6.78913,20.0283,-27.2434,34.4881,-8.79441,-0.416585,3.16945,9.35738,2.145,6.37343,-1.97638,27.7278,8,0,0,0
0,1405687064,177343,-7.13324,20.3642,-26.96,34.5315,-8.75514,-0.445744,3.15017,9.31529,2.93112,5.03096,-1.12058,27.7012,8,0,0,0
0,1405687065,178351,-7.08947,20.417,-27.0562,34.6288,-8.77704,-0.444304,3.1802,9.34599,1.88854,5.24519,-1.43088,27.7588,8,0,0,0
0,1405687066,179357,-6.74497,20.4472,-27.0838,34.5993,-8.76565,-0.417526,3.21089,9.34456,3.28169,5.07333,-1.17827,27.8686,7,0,0,0
0,1405687067,180358,-6.60209,20.4292,-26.886,34.4063,-8.76968,-0.414817,3.19358,9.34228,0.980895,6.92039,-1.06599,27.774,8,0,0,0
0,1405687068,181366,-7.01936,20.3979,-26.9167,34.4943,-8.78294,-0.457474,3.18237,9.3529,2.46467,5.94015,-2.18286,27.7526,7,0,0,0
0,1405687069,182371,-7.02353,20.2625,-27.078,34.5416,-8.75424,-0.430739,3.16053,9.31725,2.77657,4.68888,-0.851769,27.851,8,0,0,0
0,1405687070,183375,-6.61557,20.3813,-26.8804,34.3762,-8.78483,-0.422821,3.19468,9.35725,1.43945,4.7803,-1.71924,27.8613,8,0,0,0
0,1405687071,184377,-6.82201,20.4248,-27.2852,34.7591,-8.7744,-0.425121,3.20852,9.3523,0.909725,5.92901,-1.22017,27.8658,7,0,0,0
0,1405687072,185384,-7.04868,20.4978,-26.832,34.4935,-8.77207,-0.416285,3.15906,9.33285,1.94395,5.8223,-2.28032,27.8588,8,0,0,0
0,1405687073,186387,-6.90073,20.4099,-26.584,34.2183,-8.78454,-0.418171,3.20897,9.36165,0.764584,5.11135,-0.459299,28.0032,7,0,0,0
0,1405687074,187396,-6.8462,20.6884,-27.0208,34.7132,-8.77507,-0.422401,3.19626,9.3486,2.89018,5.67001,-0.856192,28.0043,8,0,0,0
0,1405687075,188401,-6.4998,20.769,-27.1058,34.761,-8.80663,-0.386313,3.18209,9.37185,1.57795,4.70555,-0.96556,28.0301,7,0,0,0
0,1405687076,189408,-6.89049,20.6489,-26.9745,34.6623,-8.82376,-0.427633,3.1652,9.38403,1.11586,5.01365,-0.6281,28.0598,7,0,0,0
0,1405687077,190412,-6.97006,20.3103,-27.0761,34.5573,-8.77235,-0.393858,3.18043,9.3394,1.31084,6.0534,-2.55185,28.0877,8,0,0,0
0,1405687078,191417,-7.22771,20.718,-26.7065,34.5646,-8.79,-0.413642,3.19718,9.36254,0.886762,5.02874,-2.07674,28.101,7,0,0,0
0,1405687079,192419,-6.83091,20.1928,-26.8234,34.2623,-8.77491,-0.43458,3.19266,9.34778,1.93876,5.51608,-0.357513,28.0816,8,0,0,0
0,1405687080,193421,-6.89038,20.4482,-27.3444,34.8328,-8.7797,-0.42333,3.20586,9.35628,2.66358,5.45555,-2.19108,28.1338,8,0,0,0
0,1405687081,194429,-7.10747,20.4447,-26.7768,34.4311,-8.75985,-0.378949,3.20298,9.33475,1.29463,5.82866,-2.05575,28.1197,7,0,0,0
0,1405687082,195430,-7.27632,19.9741,-27.0772,34.4251,-8.77324,-0.423964,3.1676,9.33719,2.18092,5.45943,-2.06792,28.2113,7,0,0,0
0,1405687083,196436,-7.3122,20.6574,-26.9056,34.7002,-8.78638,-0.431082,3.17105,9.35104,2.03883,5.02872,-3.06155,28.2606,7,0,0,0
0,1405687084,197437,-6.76563,20.3034,-26.6966,34.2156,-8.78434,-0.41786,3.16023,9.34485,1.39407,5.99591,-1.63771,28.2539,7,0,0,0
0,1405687085,198444,-6.88828,20.2328,-26.812,34.2885,-8.74272,-0.400843,3.20073,9.31882,1.88912,4.95193,-1.82619,28.2196,6,0,0,0
0,1405687086,199456,-7.01742,20.5329,-26.7699,34.4597,-8.76622,-0.41996,3.17337,9.33237,2.39402,5.45123,-1.81655,28.316,7,0,0,0
0,1405687087,200464,-7.14519,20.6406,-26.8031,34.576,-8.79431,-0.388925,3.18991,9.36305,2.89083,5.2947,-2.37607,28.2325,7,0,0,0
0,1405687088,201476,-7.07263,20.4263,-26.8864,34.4983,-8.76787,-0.415134,3.1795,9.33579,1.44364,4.69076,-0.122245,28.3454,5,0,0,0
0,1405687089,202484,-6.76942,20.0984,-27.1205,34.4281,-8.796,-0.411605,3.15638,9.35423,1.9962,6.52603,-1.27399,28.238,8,0,0,0
0,1405687090,203485,-7.1204,20.3086,-26.73,34.3167,-8.79096,-0.407389,3.18698,9.35969,2.30297,5.9822,-1.25372,28.3046,7,0,0,0
0,1405687091,204486,-6.97469,20.2921,-26.819,34.3464,-8.77425,-0.430447,3.16699,9.33823,0.2408,5.40078,-1.22304,28.3675,8,0,0,0
0,1405687092,205493,-6.72692,20.2898,-27.0514,34.4776,-8.77694,-0.438612,3.16018,9.33884,1.88867,4.70128,-1.87711,28.3481,8,0,0,0
0,1405687093,206496,-7.13657,20.3022,-27.0227,34.5447,-8.7682,-0.44604,3.167,9.33329,2.15147,6.68736,-2.25838,28.4386,7,0,0,0
0,1405687094,207499,-6.8954,20.499,-26.9146,34.5276,-8.78814,-0.409837,3.18583,9.35675,1.8252,6.79566,-1.12766,28.4022,8,0,0,0
0,1405687095,208501,-6.51744,20.3343,-26.8385,34.2968,-8.77784,-0.411447,3.18092,9.34548,2.2372,5.2585,-1.27868,28.46,8,0,0,0
0,1405687096,209508,-6.98595,20.5477,-26.733,34.4334,-8.7777,-0.446253,3.21465,9.35848,1.05921,6.59446,-1.97922,28.4812,8,0,0,0
0,1405687097,210512,-7.27865,20.0197,-26.819,34.2495,-8.77998,-0.4165,3.14635,9.33601,1.14466,7.3297,-2.09957,28.4708,7,0,0,0
0,1405687098,211514,-6.95665,20.224,-26.8621,34.3362,-8.77923,-0.422914,3.17648,9.34579,0.844533,5.33336,-1.14827,28.5207,7,0,0,0
0,1405687099,212515,-6.66157,20.6308,-26.7109,34.4017,-8.78849,-0.424347,3.18532,9.35755,2.34483,6.0099,-0.803433,28.4814,7,0,0,0
0,1405687100,213518,-6.8764,20.4783,-26.639,34.2969,-8.78983,-0.42991,3.17282,9.35482,0.798038,5.66143,-1.68292,28.5044,7,0,0,0
0,1405687101,214521,-7.05283,20.2593,-26.9639,34.4562,-8.76402,-0.435401,3.16789,9.32915,1.15904,6.38302,-1.40941,28.4047,7,0,0,0
0,1405687102,215522,-6.84485,20.5625,-26.8646,34.5163,-8.78224,-0.439392,3.15885,9.3434,2.62336,5.6062,-1.24327,28.5798,8,0,0,0
0,1405687103,216542,-7.46479,20.6313,-26.8112,34.6442,-8.77505,-0.436523,3.19642,9.34929,1.92539,7.3748,-0.746931,28.5289,8,0,0,0
0,1405687104,217543,-6.97069,20.4544,-26.565,34.2443,-8.79867,-0.415112,3.20297,9.37272,2.2931,6.5261,-1.53697,28.5678,8,0,0,0
0,1405687105,218547,-7.18537,20.5035,-26.6755,34.4036,-8.78012,-0.429464,3.17398,9.34607,0.473677,5.46943,-2.03182,28.5589,8,0,0,0
0,1405687106,219554,-7.05799,20.2067,-26.8382,34.3281,-8.77755,-0.424073,3.17965,9.34534,1.32618,5.67852,-1.72335,28.5759,8,0,0,0
0,1405687107,220556,-6.89922,20.432,-26.4468,34.1248,-8.79759,-0.41631,3.18886,9.36695,3.07572,6.11957,-2.12742,28.6122,7,0,0,0
0,1405687108,221563,-6.81557,20.4598,-27.2772,34.7722,-8.76854,-0.443832,3.15297,9.32874,1.58921,6.51384,-2.14903,28.7018,7,0,0,0
0,1405687109,222565,-6.88173,20.2319,-26.8057,34.2817,-8.78451,-0.436951,3.15537,9.34425,0.639035,6.43042,-0.618343,28.6959,7,0,0,0
0,1405687110,223573,-6.69444,20.1822,-26.9365,34.3179,-8.7786,-0.411393,3.18767,9.34849,1.69513,6.318,-0.510392,28.7214,8,0,0,0
0,1405687111,224579,-7.00162,20.2823,-27.0792,34.5496,-8.77683,-0.43058,3.17492,9.34335,1.36998,5.80707,-2.13235,28.7585,7,0,0,0
0,1405687112,225585,-7.10415,20.6764,-26.6996,34.5087,-8.75324,-0.442735,3.18279,9.32445,2.62222,5.50586,-2.78728,28.6705,8,0,0,0
0,1405687113,226591,-7.1231,20.4755,-26.8581,34.5158,-8.78145,-0.412713,3.16888,9.34484,1.93339,4.9563,0.222084,28.6885,8,0,0,0
0,1405687114,227599,-7.0158,20.4981,-26.8647,34.5124,-8.77058,-0.418641,3.16392,9.3332,0.583836,5.8351,-0.706769,28.7587,8,0,0,0
0,1405687115,228605,-7.00582,20.6387,-26.6833,34.4534,-8.77993,-0.40959,3.14914,9.33659,1.05261,6.43534,-2.21701,28.8423,8,0,0,0
0,1405687116,229610,-6.79948,20.5408,-26.7,34.3663,-8.78151,-0.438063,3.19168,9.3538,1.9626,5.79591,-2.30989,28.6854,7,0,0,0
0,1405687117,230611,-7.01965,20.1231,-26.5655,34.0579,-8.77226,-0.423848,3.15316,9.33138,0.963929,5.09783,-2.11781,28.8552,8,0,0,0
0,1405687118,231618,-7.09767,20.3196,-27.1784,34.6688,-8.77639,-0.414628,3.18362,9.34518,0.765162,5.28422,-1.72264,28.8101,7,0,0,0
0,1405687119,232619,-7.0258,20.5438,-26.9034,34.5717,-8.7773,-0.425136,3.18297,9.34628,1.94239,6.88793,-2.36766,28.7702,8,0,0,0
0,1405687120,233626,-6.97933,20.3987,-26.9324,34.4989,-8.76608,-0.423081,3.14733,9.32356,1.31845,5.20451,-1.28767,28.8061,8,0,0,0
0,1405687121,234627,-6.75698,20.5287,-26.8019,34.43,-8.77605,-0.42541,3.14931,9.33371,2.11523,5.21783,-2.28803,28.9222,7,0,0,0
0,1405687122,235630,-6.8123,20.1628,-26.9685,34.3547,-8.77477,-0.410899,3.13434,9.32682,2.57449,5.15192,-2.01107,28.9809,8,0,0,0
0,1405687123,236632,-6.97932,20.7011,-26.8145,34.587,-8.74667,-0.429489,3.19514,9.32189,1.429,5.42334,-2.06231,28.9923,8,0,0,0
0,1405687124,237638,-7.10536,20.6345,-26.8171,34.5749,-8.78652,-0.429262,3.16095,9.34766,1.81232,6.34556,-2.4663,29.0937,7,0,0,0
0,1405687125,238642,-6.72168,20.272,-26.8933,34.3421,-8.77526,-0.405185,3.1611,9.33605,2.90863,5.27354,-2.70789,29.0782,7,0,0,0
0,1405687126,239648,-7.10551,20.5923,-26.9148,34.6256,-8.76283,-0.433731,3.18818,9.33487,2.70594,5.58738,-1.37028,28.9976,7,0,0,0
0,1405687127,240650,-6.81196,20.1945,-27.2189,34.5701,-8.78176,-0.43538,3.18545,9.35179,1.71647,6.1291,-2.78454,29.1563,7,0,0,0
0,1405687128,241652,-6.74503,20.3006,-26.7817,34.2764,-8.76429,-0.404679,3.19131,9.336,1.64532,5.98825,-0.908032,29.0504,7,0,0,0
0,1405687129,242655,-6.97867,20.4037,-26.8657,34.4497,-8.77713,-0.436048,3.14678,9.33436,0.805602,6.59864,-1.79962,29.1849,7,0,0,0
0,1405687130,243660,-6.5418,20.214,-26.971,34.3342,-8.77245,-0.428989,3.1375,9.32651,1.89271,6.38715,-2.39333,29.0781,7,0,0,0
0,1405687131,244665,-7.04453,20.4065,-26.771,34.3909,-8.76488,-0.436141,3.17885,9.33373,0.853023,5.85793,-2.2541,29.1299,8,0,0,0
0,1405687132,245667,-7.00379,20.1246,-27.2622,34.6017,-8.7715,-0.423612,3.16117,9.33336,2.64156,6.2587,-1.59025,29.2485,7,0,0,0
0,1405687133,246669,-6.91683,20.302,-27.071,34.5377,-8.77574,-0.42068,3.20153,9.35096,3.16991,5.5663,-1.28064,29.2039,6,0,0,0
0,1405687134,247674,-6.97318,20.1536,-26.8435,34.2836,-8.782,-0.431016,3.17904,9.34964,2.56946,6.24487,-0.996826,29.2984,8,0,0,0
0,1405687135,248679,-6.91478,20.411,-26.4375,34.1081,-8.79024,-0.421851,3.1975,9.36324,2.20163,5.98123,-1.70271,29.2595,7,0,0,0
0,1405687136,249681,-6.88865,19.9954,-26.9289,34.2409,-8.77111,-0.424129,3.15959,9.33249,1.36259,5.46918,-0.839238,29.3235,8,0,0,0
0,1405687137,250686,-6.90268,20.0348,-26.8958,34.2407,-8.77496,-0.421561,3.18775,9.34555,1.56276,6.05822,-1.53652,29.2206,7,0,0,0
0,1405687138,251691,-6.61541,20.2625,-26.6702,34.1414,-8.80031,-0.420679,3.18384,9.368,3.00262,6.04593,-0.776647,29.4617,7,0,0,0
0,1405687139,252697,-6.98288,20.227,-26.5478,34.0981,-8.78844,-0.418099,3.1724,9.35284,2.11956,4.52585,-2.18526,29.3242,8,0,0,0
0,1405687140,253704,-6.72602,20.4948,-26.9077,34.4862,-8.7763,-0.420266,3.14148,9.33108,1.60888,4.96241,-1.86716,29.4699,7,0,0,0
0,1405687141,254710,-6.96067,20.5027,-27.0184,34.6238,-8.78645,-0.426905,3.17719,9.35299,1.74596,6.4266,-2.37833,29.4032,7,0,0,0
0,1405687142,255713,-7.0494,19.889,-26.6835,34.0187,-8.78657,-0.425702,3.17235,9.35141,0.819267,7.41828,-2.66149,29.5507,8,0,0,0
0,1405687143,256721,-6.94986,20.1182,-27.0185,34.3954,-8.79014,-0.430124,3.14581,9.346,1.9147,6.30175,-1.77483,29.4214,7,0,0,0
0,1405687144,257727,-6.96063,20.3731,-26.8666,34.4286,-8.77828,-0.433392,3.20183,9.35403,1.91353,7.03265,-2.10116,29.4945,7,0,0,0
0,1405687145,258733,-6.79926,20.0295,-27.0482,34.3368,-8.77884,-0.424965,3.19124,9.35054,3.69143,6.34143,-2.83384,29.5399,8,0,0,0
0,1405687146,259735,-6.95988,20.2761,-26.5512,34.1252,-8.7805,-0.426708,3.20228,9.35595,1.58726,5.97688,-2.68028,29.578,7,0,0,0
0,1405687147,260739,-6.85389,20.2726,-26.5528,34.1029,-8.77661,-0.416582,3.1748,9.34248,1.44734,6.60088,-1.10289,29.5579,7,0,0,0
0,1405687148,261743,-6.98426,20.6084,-26.8673,34.5736,-8.77301,-0.41173,3.13892,9.32674,0.723612,6.28299,-0.831822,29.5559,7,0,0,0
0,1405687149,262745,-6.87238,20.5197,-27.0638,34.6516,-8.77202,-0.412733,3.1901,9.3432,1.41656,5.8408,-1.41568,29.6165,8,0,0,0
0,1405687150,263756,-7.23322,20.2289,-26.9572,34.4705,-8.78569,-0.426019,3.17296,9.35081,3.36545,6.59233,-1.18208,29.5877,7,0,0,0
0,1405687151,264759,-7.15704,20.0911,-26.8407,34.2827,-8.79259,-0.41099,3.17555,9.35749,1.2133,5.88715,-1.76962,29.5729,7,0,0,0
0,1405687152,265762,-7.0664,20.1685,-26.8119,34.2867,-8.78531,-0.416239,3.16033,9.34572,2.80659,5.34444,-1.01758,29.6114,7,0,0,0
0,1405687153,266767,-6.96787,20.1323,-27.0626,34.442,-8.78637,-0.433742,3.19506,9.35932,2.22563,5.67615,-0.115363,29.6458,8,0,0,0
0,1405687154,267770,-6.62756,20.165,-27.1798,34.4861,-8.77395,-0.405727,3.18946,9.34449,2.2914,5.04727,-0.34377,29.6698,7,0,0,0
0,1405687155,268778,-6.77839,20.6169,-27.0662,34.6927,-8.77463,-0.425978,3.18886,9.34582,2.23412,6.08924,-1.40899,29.688,7,0,0,0
0,1405687156,269779,-7.05255,20.6282,-26.4531,34.2787,-8.78686,-0.437605,3.15912,9.34775,1.80372,6.54163,-0.612875,29.7341,7,0,0,0
0,1405687157,270781,-6.9737,20.3955,-26.9168,34.4836,-8.78641,-0.406222,3.17682,9.35191,1.87859,5.90733,-0.425853,29.7771,8,0,0,0
0,1405687158,271786,-7.12274,20.5581,-26.7959,34.5165,-8.7815,-0.451063,3.16971,9.34693,1.14336,5.64952,-2.87552,29.7609,7,0,0,0
0,1405687159,272787,-6.71897,20.5644,-26.97,34.5748,-8.7825,-0.419495,3.15393,9.34107,2.6027,5.8703,-2.83093,29.7486,8,0,0,0
0,1405687160,273790,-6.73349,20.2961,-26.8141,34.2968,-8.7719,-0.404759,3.16767,9.33511,2.13764,5.83044,-1.45339,29.8269,8,0,0,0
0,1405687161,274797,-6.80876,20.411,-26.8401,34.4,-8.79301,-0.420861,3.19721,9.3657,2.58606,5.74625,-1.73773,29.8054,7,0,0,0
0,1405687162,275807,-7.08966,20.2366,-26.7836,34.3095,-8.78222,-0.421366,3.15862,9.34247,1.38238,6.3363,-1.29974,29.7844,7,0,0,0
0,1405687163,276813,-6.72211,20.1084,-26.8191,34.1877,-8.77516,-0.432898,3.16633,9.33898,2.64117,6.40263,-2.2846,29.8571,8,0,0,0
0,1405687164,277815,-6.72405,20.475,-26.7225,34.3298,-8.77394,-0.432217,3.17314,9.34011,0.519679,7.27055,-1.0477,29.7478,7,0,0,0
0,1405687165,278820,-7.16811,20.2439,-26.7414,34.2972,-8.78439,-0.42438,3.19224,9.35607,0.842681,5.13699,-0.769036,29.8362,8,0,0,0
0,1405687166,279827,-7.03448,20.0598,-26.8984,34.2841,-8.78464,-0.417364,3.17634,9.35058,2.35098,5.738,-2.15129,29.8597,6,0,0,0
0,1405687167,280828,-7.08182,20.4486,-26.8156,34.4583,-8.78552,-0.418811,3.18428,9.35416,0.724278,6.22014,-1.69347,29.8487,8,0,0,0
0,1405687168,281833,-6.7392,20.3702,-26.6695,34.229,-8.79402,-0.430019,3.19509,9.36633,0.841484,5.88085,-0.299499,29.7973,7,0,0,0
0,1405687169,282842,-7.11022,19.8476,-26.6524,33.9828,-8.77595,-0.433563,3.18012,9.34443,0.837605,4.97037,-0.865095,29.839,7,0,0,0
0,1405687170,283844,-6.87026,20.036,-26.7038,34.0843,-8.77822,-0.417636,3.17354,9.3436,2.24445,5.89718,-0.446911,29.9042,8,0,0,0
0,1405687171,284850,-6.89589,20.2633,-27.1871,34.6019,-8.75162,-0.410101,3.19944,9.32713,2.39828,5.86764,-0.999019,29.9153,7,0,0,0
0,1405687172,285853,-6.90523,20.1058,-26.6628,34.1003,-8.78065,-0.432946,3.15187,9.33925,3.58609,6.38973,-2.64416,29.9349,7,0,0,0
0,1405687173,286854,-6.90948,20.1286,-26.7255,34.1637,-8.76876,-0.431699,3.17415,9.33556,2.21362,6.07204,-1.34755,29.8403,8,0,0,0
0,1405687174,287860,-6.75075,20.6608,-26.6005,34.3515,-8.77975,-0.434072,3.1835,9.34917,0.445159,5.8022,-1.6905,29.9735,6,0,0,0
0,1405687175,288868,-7.0314,20.098,-26.703,34.1529,-8.78693,-0.414751,3.17173,9.35104,1.41726,5.27075,-2.17388,29.8345,7,0,0,0
0,1405687176,289875,-6.85008,20.4152,-26.6535,34.2653,-8.75196,-0.419663,3.19662,9.32692,0.778307,6.93873,-2.33184,29.9164,6,0,0,0
0,1405687177,290876,-7.07344,20.0114,-26.5465,33.9883,-8.77985,-0.408147,3.15383,9.33804,1.09852,5.09646,-1.81635,30.0261,7,0,0,0
0,1405687178,291883,-6.87405,20.4543,-26.6029,34.2541,-8.78481,-0.420387,3.17288,9.34969,3.05308,5.26951,-1.53177,29.9973,7,0,0,0
0,1405687179,292891,-6.96064,20.4457,-26.4566,34.153,-8.77522,-0.431336,3.16777,9.33945,1.46627,5.94311,-2.03855,30.0634,8,0,0,0
0,1405687180,293892,-7.12307,20.2953,-27.1238,34.617,-8.77038,-0.445438,3.16029,9.33302,1.87332,7.53998,-2.20654,30.019,8,0,0,0
0,1405687181,294894,-6.88196,20.2365,-26.7969,34.2776,-8.75509,-0.430445,3.148,9.31379,1.3389,6.93009,-1.53226,30.0217,8,0,0,0
0,1405687182,295900,-6.78195,20.0791,-27.0329,34.3503,-8.77855,-0.423421,3.14108,9.3332,1.2666,6.15109,-1.5293,30.059,8,0,0,0
0,1405687183,296908,-6.878,20.3855,-26.759,34.3354,-8.79463,-0.448166,3.17382,9.36052,1.46627,5.39772,-0.619577,30.0538,7,0,0,0
0,1405687184,297909,-6.9017,20.2898,-26.6428,34.1928,-8.78294,-0.433143,3.14817,9.34016,1.70157,5.16833,-1.89447,30.2085,8,0,0,0
0,1405687185,298911,-6.93051,20.3254,-26.6632,34.2357,-8.78146,-0.4137,3.16865,9.34481,1.74492,5.4956,-1.64756,30.1516,8,0,0,0
0,1405687186,299913,-6.95995,20.303,-26.6715,34.2348,-8.76121,-0.386874,3.17944,9.32831,1.14973,6.31,-1.23203,30.2099,7,0,0,0
0,1405687187,300918,-7.01503,20.3606,-26.6746,34.2826,-8.7763,-0.438824,3.16176,9.33877,0.602325,5.16376,-2.76066,30.0645,7,0,0,0
0,1405687188,301921,-6.89302,19.9798,-26.3903,33.8105,-8.75818,-0.420828,3.16591,9.32233,0.491522,5.86663,-1.80458,30.1163,7,0,0,0
0,1405687189,302931,-6.8164,20.3541,-26.5433,34.1365,-8.77079,-0.434399,3.16098,9.33313,2.17547,5.12277,-1.65214,30.2346,9,0,0,0
0,1405687190,303937,-7.02412,20.2492,-26.4698,34.059,-8.77598,-0.439312,3.15561,9.33642,2.75097,6.0779,-1.8089,30.288,7,0,0,0
0,1405687191,304943,-7.09842,20.3934,-26.3505,34.068,-8.75898,-0.405905,3.18691,9.32957,1.9055,6.57076,-1.07712,30.1919,8,0,0,0
0,1405687192,305944,-6.8882,20.5875,-26.6237,34.3528,-8.77133,-0.424843,3.16272,9.33379,2.0096,6.03356,-0.573447,30.3651,7,0,0,0
0,1405687193,306947,-6.92422,20.3962,-26.3029,33.997,-8.77384,-0.438905,3.14502,9.33081,1.26914,6.78945,-2.89891,30.3626,7,0,0,0
0,1405687194,307955,-7.1585,20.0882,-26.6149,34.1047,-8.76532,-0.424302,3.14469,9.32202,2.427,5.31372,-1.76413,30.3257,7,0,0,0
0,1405687195,308960,-6.8518,20.2884,-26.7647,34.277,-8.77469,-0.426735,3.17449,9.34102,2.50772,6.25215,-1.88248,30.3446,9,0,0,0
0,1405687196,309964,-6.85005,20.2339,-26.6355,34.1436,-8.78848,-0.423974,3.17047,9.35248,2.4079,6.11551,-0.656792,30.368,8,0,0,0
0,1405687197,310968,-7.07009,20.1571,-26.694,34.1887,-8.76284,-0.427185,3.17082,9.32867,2.41437,5.08079,-1.70493,30.3942,7,0,0,0
0,1405687198,311972,-7.02153,20.2124,-26.5814,34.1235,-8.74934,-0.400409,3.16686,9.31345,2.25837,5.84837,-2.64947,30.4339,7,0,0,0
0,1405687199,312979,-6.79118,20.3021,-26.9144,34.3901,-8.78577,-0.422571,3.16707,9.34872,1.814,6.48661,-1.58405,30.4945,8,0,0,0
0,1405687200,313986,-6.95875,20.2431,-26.8699,34.354,-8.78212,-0.428962,3.15173,9.3404,0.831752,6.55326,-0.48137,30.4882,7,0,0,0
0,1405687201,314987,-7.20633,20.4861,-26.5766,34.3209,-8.7739,-0.41006,3.1769,9.34035,3.11272,7.2246,-0.530475,30.5055,9,0,0,0
0,1405687202,315991,-6.89263,20.1327,-26.1898,33.7452,-8.76564,-0.429965,3.191,9.33829,1.83966,7.33518,-1.40846,30.5502,7,0,0,0
0,1405687204,317007,-6.92892,20.428,-26.6818,34.3109,-8.77178,-0.440463,3.14169,9.32783,1.84337,5.3031,-1.77311,30.4508,8,0,0,0
0,1405687205,318013,-6.89624,20.3215,-26.9203,34.4271,-8.79657,-0.461575,3.13566,9.35013,1.77048,6.18635,-2.37885,30.4794,7,0,0,0
0,1405687206,319016,-7.25607,20.4153,-26.3397,34.1059,-8.78234,-0.44091,3.16262,9.34484,0.818351,5.40464,-2.06045,30.5694,8,0,0,0
0,1405687207,320024,-6.74691,19.9963,-26.3318,33.7452,-8.77734,-0.406507,3.19992,9.35128,3.10157,5.25511,-2.1455,30.599,7,0,0,0
0,1405687208,321028,-7.14016,20.399,-26.9412,34.5388,-8.77222,-0.417052,3.17798,9.33945,0.396024,6.67162,-1.88895,30.5344,7,0,0,0
0,1405687209,322031,-6.95117,20.475,-26.9383,34.543,-8.77888,-0.419339,3.17907,9.34618,0.233592,7.35939,-1.24005,30.5962,7,0,0,0
0,1405687210,323034,-7.05542,20.2753,-26.5027,34.1066,-8.78649,-0.431087,3.15843,9.34687,1.77425,6.53923,-1.85847,30.7273,8,0,0,0
0,1405687211,324047,-7.05243,20.138,-26.6643,34.1506,-8.77575,-0.420336,3.16679,9.33912,2.72506,5.72378,-1.90521,30.6473,7,0,0,0
0,1405687212,325053,-7.21268,20.3179,-26.067,33.8279,-8.79277,-0.424371,3.19957,9.36644,1.22841,6.48277,-0.349884,30.6513,7,0,0,0
0,1405687213,326058,-7.07941,20.305,-26.6748,34.2631,-8.78999,-0.434074,3.15507,9.34916,1.05062,6.39023,-3.49678,30.7129,7,0,0,0
0,1405687214,327062,-6.95721,20.4534,-26.4769,34.1727,-8.75969,-0.436193,3.17363,9.32707,2.80885,6.33151,-1.65611,30.7589,8,0,0,0
0,1405687215,328064,-7.14782,20.1779,-26.9531,34.4196,-8.74726,-0.404807,3.19049,9.31974,2.27952,6.45477,-1.4505,30.7592,7,0,0,0
0,1405687216,329079,-6.5027,20.2451,-26.6602,34.1015,-8.79036,-0.446412,3.18856,9.36144,2.325,6.25028,-1.47519,30.6651,7,0,0,0
0,1405687217,330083,-7.01514,19.9038,-26.8848,34.1785,-8.77979,-0.407663,3.18075,9.34709,1.51014,5.67862,-2.02804,30.8121,7,0,0,0
0,1405687218,331087,-6.87825,20.3413,-26.5364,34.1359,-8.77591,-0.407521,3.16485,9.33804,2.93698,6.46338,-1.92862,30.749,7,0,0,0
0,1405687219,332105,-7.17011,20.2625,-26.737,34.3052,-8.79383,-0.424461,3.16713,9.35641,0.579717,5.98176,-0.736825,30.7981,7,0,0,0
0,1405687220,333116,-6.89205,20.4442,-26.7424,34.3602,-8.78533,-0.426989,3.1988,9.35931,1.58518,6.57712,-2.89362,30.7903,7,0,0,0
0,1405687221,334121,-7.01912,20.1152,-26.7422,34.1911,-8.75985,-0.44193,3.15446,9.32099,2.16645,6.51475,-1.39326,30.8541,7,0,0,0
0,1405687222,335122,-7.03773,19.9933,-26.7613,34.1384,-8.7828,-0.409415,3.16116,9.34335,2.13678,6.78776,-2.0982,30.8725,6,0,0,0
0,1405687223,336127,-6.84438,20.0868,-26.5655,34.0008,-8.77853,-0.431145,3.17521,9.34507,0.76807,5.65633,-2.85082,30.7849,7,0,0,0
0,1405687224,337130,-6.93709,20.3978,-26.974,34.5223,-8.76938,-0.436387,3.149,9.32785,2.9277,6.54451,-1.78918,30.9185,7,0,0,0
0,1405687225,338136,-6.72805,20.4901,-26.5364,34.1949,-8.75726,-0.425337,3.13549,9.31138,2.16862,6.35531,-1.65959,30.9494,8,0,0,0
0,1405687226,339141,-6.81209,20.3352,-26.3015,33.9366,-8.75875,-0.438189,3.13911,9.3146,2.57066,6.54386,-2.0191,30.8597,8,0,0,0
0,1405687227,340149,-6.62503,20.0957,-26.9312,34.2493,-8.80045,-0.410794,3.17087,9.36328,0.358215,5.88631,-0.673198,30.975,8,0,0,0
0,1405687228,341157,-6.95157,20.0587,-26.561,34.0024,-8.79423,-0.414796,3.16742,9.35644,2.18715,5.38348,-2.17802,30.8799,8,0,0,0
0,1405687229,342161,-6.65348,19.8521,-26.6668,33.9041,-8.77831,-0.429367,3.17726,9.34548,1.8163,6.62339,-2.52378,31.0101,7,0,0,0
0,1405687230,343167,-6.55955,20.3565,-26.5776,34.1143,-8.75969,-0.413441,3.18332,9.32935,3.22871,6.02959,-1.05303,30.9703,8,0,0,0
0,1405687231,344173,-6.63511,20.0779,-26.8559,34.1816,-8.76538,-0.427813,3.15212,9.32474,1.63192,5.86338,-2.84331,31.132,8,0,0,0
0,1405687232,345179,-7.06011,20.1301,-26.7239,34.194,-8.77494,-0.435235,3.15794,9.33604,1.93061,6.37432,-2.41146,31.054,8,0,0,0
0,1405687233,346184,-6.7384,20.0639,-27.18,34.4488,-8.76884,-0.443818,3.16919,9.33453,1.40166,6.42796,-3.24162,31.0925,7,0,0,0
0,1405687234,347188,-7.01894,20.2464,-26.8209,34.3299,-8.76531,-0.409532,3.21134,9.34404,0.984722,6.5422,-2.32723,31.0926,7,0,0,0
0,1405687235,348192,-6.90871,20.4377,-26.5026,34.1734,-8.78843,-0.420972,3.17015,9.3522,2.05723,6.215,-0.207513,31.0644,7,0,0,0
0,1405687236,349202,-6.90769,20.1856,-26.7293,34.1999,-8.76674,-0.421033,3.14354,9.32281,1.3929,5.67328,-2.43183,31.0939,8,0,0,0
0,1405687237,350208,-6.89723,20.2135,-26.7134,34.2018,-8.77799,-0.414293,3.1555,9.33713,2.65025,6.81748,-2.27915,31.1795,7,0,0,0
0,1405687238,351216,-6.8919,20.1977,-26.5139,34.0358,-8.76759,-0.429411,3.17386,9.33426,1.25535,6.77345,-0.551541,31.1004,8,0,0,0
0,1405687239,352224,-6.79888,19.9773,-26.4627,33.8466,-8.7799,-0.439762,3.14235,9.33565,1.13924,7.94986,-1.68059,31.0349,7,0,0,0
0,1405687240,353231,-6.82873,20.2932,-26.8466,34.3393,-8.76712,-0.444242,3.18012,9.33665,2.00706,6.08823,-1.56597,31.1588,7,0,0,0
0,1405687241,354240,-6.83679,20.1959,-26.5847,34.0788,-8.78824,-0.428921,3.16942,9.35213,0.823652,5.82711,-3.4128,31.1424,7,0,0,0
0,1405687242,355246,-6.79589,20.2618,-26.6379,34.1512,-8.77454,-0.422206,3.1718,9.33976,0.628499,6.55626,-1.5624,31.1698,7,0,0,0
0,1405687243,356253,-6.9583,20.5412,-26.2484,34.049,-8.78446,-0.402362,3.16914,9.3473,3.28843,6.15523,-0.852654,31.164,8,0,0,0
0,1405687244,357260,-7.05625,20.2708,-26.9175,34.4274,-8.78816,-0.429555,3.15796,9.34821,0.542908,6.64752,-1.99029,31.1786,7,0,0,0
0,1405687245,358266,-6.63856,20.2707,-26.7219,34.1912,-8.78203,-0.418672,3.17751,9.34858,0.533168,6.63522,-3.6084,31.2564,8,0,0,0
0,1405687246,359274,-6.79521,20.4355,-26.4531,34.1109,-8.77753,-0.441098,3.16089,9.33974,2.57236,5.02395,-1.99157,31.2564,7,0,0,0
0,1405687247,360286,-6.8821,20.0862,-26.7361,34.1415,-8.75942,-0.428024,3.17836,9.32805,1.64871,5.87667,-3.95236,31.2437,8,0,0,0
0,1405687248,361289,-6.81225,20.2679,-26.7828,34.2711,-8.77784,-0.446317,3.13158,9.33041,1.15693,6.06456,-1.61043,31.2067,8,0,0,0
0,1405687249,362294,-6.90697,20.3659,-26.6584,34.2513,-8.76557,-0.432544,3.16419,9.32922,1.50675,5.15369,-2.17085,31.328,9,0,0,0
0,1405687250,363301,-7.02738,20.482,-26.8319,34.4797,-8.76983,-0.431574,3.14168,9.32557,2.18396,5.2082,-2.57734,31.3114,8,0,0,0
0,1405687251,364309,-7.03739,20.5566,-26.6482,34.3836,-8.76279,-0.419342,3.15681,9.32351,1.52814,6.62475,-1.61243,31.3164,7,0,0,0
0,1405687252,365310,-7.24105,20.2108,-26.6218,34.1998,-8.78813,-0.431197,3.18976,9.35904,1.78962,5.54237,-2.62193,31.2923,8,0,0,0
0,1405687253,366311,-6.94602,20.097,-26.626,34.0746,-8.77708,-0.432489,3.15499,9.33692,1.12506,5.93318,-1.17071,31.3386,8,0,0,0
0,1405687254,367316,-7.04375,20.3921,-26.2593,33.9853,-8.77187,-0.439299,3.17601,9.33947,1.23829,7.2936,-2.18142,31.2573,7,0,0,0
0,1405687255,368320,-6.82943,20.2897,-26.8075,34.3068,-8.78498,-0.427846,3.13485,9.33736,1.81267,6.17041,-1.95004,31.2095,7,0,0,0
0,1405687256,369326,-6.86224,20.2379,-26.6195,34.1359,-8.78972,-0.428494,3.17556,9.35558,0.971063,6.71224,-1.35975,31.3616,7,0,0,0
0,1405687257,370327,-6.79667,20.4492,-26.9157,34.4793,-8.75665,-0.432061,3.12347,9.30708,1.67555,6.64139,-1.39768,31.3247,8,0,0,0
0,1405687258,371333,-6.81136,20.3581,-26.8259,34.3581,-8.77404,-0.440301,3.14008,9.32941,1.24381,5.1432,-0.920622,31.2945,8,0,0,0
0,1405687259,372340,-6.95527,20.3108,-26.1343,33.8217,-8.7899,-0.421328,3.19488,9.362,2.84347,5.26266,-2.06952,31.3091,8,0,0,0
0,1405687260,373341,-6.69765,20.5864,-26.5113,34.2273,-8.74772,-0.438368,3.15683,9.31023,1.77292,6.66086,-1.79323,31.319,8,0,0,0
0,1405687261,374342,-6.94143,20.2072,-26.8623,34.3234,-8.78019,-0.423516,3.16583,9.34311,3.50252,5.62478,-2.69239,31.3239,7,0,0,0
0,1405687262,375343,-6.82245,20.265,-26.8409,34.3169,-8.77862,-0.433803,3.1494,9.33655,1.21211,6.70135,-1.96971,31.342,8,0,0,0
0,1405687263,376350,-7.04269,20.2164,-26.8806,34.3637,-8.77132,-0.450953,3.14869,9.33025,1.63389,6.86095,-2.2337,31.3716,7,0,0,0
0,1405687264,377357,-6.92972,20.1192,-26.6987,34.1412,-8.77709,-0.431788,3.16591,9.34059,2.46491,7.04543,-1.38677,31.3666,8,0,0,0
0,1405687265,378362,-6.98481,20.0774,-26.6528,34.0919,-8.75894,-0.43604,3.18152,9.32906,2.40023,6.4995,-2.18727,31.3251,6,0,0,0
0,1405687266,379370,-7.08223,20.2109,-26.7228,34.2454,-8.77356,-0.43579,3.16543,9.3373,1.70364,6.79187,-0.5766,31.3969,7,0,0,0
0,1405687267,380374,-6.66902,20.2514,-26.4603,33.9815,-8.81534,-0.41564,3.1808,9.38085,1.93166,6.1535,-2.34366,31.4007,7,0,0,0
0,1405687268,381380,-7.02232,20.1817,-26.3137,33.8973,-8.76359,-0.403865,3.14455,9.31943,0.407826,5.52953,-2.04793,31.3891,7,0,0,0
0,1405687269,382388,-7.05241,20.1445,-26.7405,34.214,-8.78572,-0.447144,3.16856,9.35033,1.79642,6.52592,-1.17393,31.4992,6,0,0,0
0,1405687270,383397,-6.93358,20.2652,-26.364,33.9679,-8.77089,-0.428733,3.15853,9.33213,1.97155,4.56099,-0.683558,31.4063,7,0,0,0
0,1405687271,384401,-6.63463,20.1252,-26.872,34.222,-8.79403,-0.429503,3.11275,9.33855,2.02668,5.67799,-2.2678,31.4206,6,0,0,0
0,1405687272,385405,-6.81098,20.1105,-26.8538,34.2338,-8.77862,-0.424794,3.1804,9.34663,1.79232,6.76243,-2.35044,31.4217,8,0,0,0
0,1405687273,386408,-6.83308,20.2513,-26.6207,34.1389,-8.76741,-0.42539,3.16265,9.3301,3.4842,5.90851,-1.62632,31.4673,7,0,0,0
0,1405687274,387410,-6.88748,20.0425,-27.0105,34.3323,-8.76725,-0.412614,3.15478,9.32671,2.16915,5.90489,-2.65621,31.4942,7,0,0,0
0,1405687275,388418,-6.93115,20.2876,-26.6454,34.1995,-8.76929,-0.429681,3.17152,9.33507,0.884718,6.31051,-2.13468,31.5581,8,0,0,0
0,1405687276,389424,-6.89906,20.2934,-26.971,34.4507,-8.75792,-0.419858,3.16519,9.3218,0.985686,5.92813,-0.884118,31.5493,8,0,0,0
0,1405687277,390431,-6.96847,20.4399,-26.5927,34.2567,-8.78706,-0.432328,3.174,9.35273,1.11207,6.03479,-2.73635,31.6922,7,0,0,0
0,1405687278,391439,-6.61556,20.1899,-26.7997,34.1997,-8.7702,-0.413167,3.15135,9.32835,2.73176,7.45226,-2.33247,31.6233,7,0,0,0
0,1405687279,392444,-7.1692,20.2672,-26.5347,34.1504,-8.76833,-0.418433,3.17918,9.33627,2.96064,7.13444,-1.92455,31.6457,7,0,0,0
0,1405687280,393446,-6.75577,20.2083,-26.6911,34.153,-8.7556,-0.416893,3.14767,9.31354,0.974726,5.6773,-0.846351,31.7881,8,0,0,0
0,1405687281,394455,-6.79855,19.9559,-26.56,33.9101,-8.7604,-0.427582,3.15959,9.32258,2.17773,7.31426,-1.06635,31.5885,8,0,0,0
0,1405687282,395457,-6.86911,20.4202,-26.5912,34.2237,-8.76462,-0.420435,3.14025,9.31968,1.85929,7.43047,-1.96236,31.8005,7,0,0,0
0,1405687283,396472,-6.72222,20.2494,-26.8959,34.331,-8.78033,-0.421954,3.16214,9.34191,1.27243,5.78167,-0.910695,31.8284,7,0,0,0
0,1405687284,397477,-6.7134,20.2565,-26.903,34.339,-8.77851,-0.421168,3.15527,9.33784,1.44468,6.29791,-1.54959,31.7486,8,0,0,0
0,1405687285,398485,-7.17659,20.2508,-26.3809,34.0228,-8.78297,-0.433567,3.17537,9.34941,0.150873,6.9285,-2.78674,31.6614,7,0,0,0
0,1405687286,399488,-6.82564,20.3231,-26.7366,34.2705,-8.78007,-0.395778,3.18821,9.34938,1.62251,6.90013,0.255772,31.7779,8,0,0,0
0,1405687287,400495,-6.85957,20.2096,-26.4494,33.9861,-8.77585,-0.419683,3.14468,9.3317,2.33031,6.39022,-2.09684,31.8431,7,0,0,0
0,1405687288,401500,-6.9262,20.1747,-26.7866,34.242,-8.77111,-0.424073,3.16146,9.33312,2.08821,5.75657,-1.6228,31.8445,7,0,0,0
0,1405687289,402505,-7.17354,20.2261,-26.715,34.2673,-8.7776,-0.424842,3.12221,9.32604,1.60303,5.55259,-2.70697,31.8765,7,0,0,0
0,1405687290,403516,-6.94768,20.0716,-26.7107,34.1263,-8.77837,-0.441489,3.164,9.34161,1.0729,6.57162,-2.06879,31.9101,7,0,0,0
0,1405687291,404519,-6.93394,20.3417,-26.6289,34.2193,-8.79879,-0.427176,3.12912,9.3484,0.242098,7.49487,-1.2009,31.881,8,0,0,0
0,1405687292,405523,-6.83389,20.2441,-26.6704,34.1736,-8.77341,-0.435086,3.16991,9.33864,0.863151,5.74854,-2.04597,31.8848,7,0,0,0
0,1405687293,406524,-6.78791,20.0189,-26.4988,33.8972,-8.7869,-0.439888,3.15989,9.34816,1.69162,6.404,-1.93863,31.9499,8,0,0,0
0,1405687294,407542,-6.93863,20.3514,-26.1347,33.843,-8.78031,-0.391145,3.19471,9.35163,2.07024,6.10725,-2.04154,32.0252,7,0,0,0
0,1405687295,408545,-6.63117,20.3219,-26.5709,34.1023,-8.76705,-0.433584,3.17034,9.33275,1.16478,6.55799,-2.52705,32.0267,8,0,0,0
0,1405687296,409551,-6.8911,20.1478,-26.7199,34.1669,-8.78705,-0.439054,3.17524,9.35346,1.21058,6.74144,-1.73687,31.8961,8,0,0,0
0,1405687297,410554,-7.0031,20.0327,-26.8264,34.2054,-8.78652,-0.416488,3.16467,9.34835,0.636264,6.53896,-0.0899084,31.9781,8,0,0,0
0,1405687298,411558,-7.08498,20.2357,-26.3016,33.9331,-8.77129,-0.397155,3.17147,9.3355,2.03132,7.32087,-1.07275,32.0739,8,0,0,0
0,1405687299,412561,-6.84674,20.2754,-26.582,34.1259,-8.76902,-0.429468,3.1799,9.33766,2.2328,6.29356,-2.23623,32.0409,7,0,0,0
0,1405687300,413570,-7.11362,20.2451,-27.0081,34.495,-8.77644,-0.441591,3.14876,9.33465,1.50644,6.67703,-1.40313,32.0298,8,0,0,0
0,1405687301,414577,-6.95601,20.2853,-26.7793,34.3075,-8.77481,-0.43451,3.18903,9.34644,1.60163,7.12753,-2.7177,31.9269,8,0,0,0
0,1405687302,415588,-6.79624,19.9446,-27.0264,34.2696,-8.78369,-0.451391,3.17573,9.35105,0.510122,8.24976,-0.493189,32.0253,8,0,0,0
0,1405687303,416595,-6.72748,19.9728,-26.6468,33.9739,-8.78694,-0.417437,3.17275,9.35152,1.23486,5.7595,-1.28121,31.9967,7,0,0,0
0,1405687304,417599,-6.77726,20.2355,-26.8889,34.3281,-8.78851,-0.422656,3.13034,9.33893,2.54124,7.46653,-1.5598,32.1011,7,0,0,0
0,1405687305,418606,-6.95325,20.0101,-26.8186,34.1758,-8.77551,-0.41914,3.15299,9.33416,3.09227,6.44532,-2.12986,32.1369,8,0,0,0
0,1405687306,419613,-6.98882,20.1535,-26.5487,34.0564,-8.78748,-0.43232,3.1582,9.34778,1.55164,7.25249,-1.14463,32.2067,8,0,0,0
0,1405687307,420614,-6.8923,20.3548,-26.5121,34.1279,-8.80451,-0.42929,3.18452,9.37256,3.015,6.66776,-2.1317,32.0771,7,0,0,0
0,1405687308,421616,-6.96354,20.2823,-26.6545,34.21,-8.76911,-0.447981,3.14937,9.32826,1.11452,6.29265,-1.42422,32.1508,8,0,0,0
0,1405687309,422617,-7.20289,20.1497,-27.0093,34.4586,-8.77862,-0.417289,3.19579,9.35154,1.42293,6.26164,-0.875038,32.1175,7,0,0,0
0,1405687310,423625,-7.32064,20.2123,-26.922,34.4517,-8.77879,-0.449154,3.15435,9.3391,1.3126,5.31207,-2.32738,32.1572,8,0,0,0
0,1405687311,424626,-6.91528,19.7842,-26.7206,33.9591,-8.78479,-0.409596,3.14519,9.33983,1.80386,7.0949,-1.65779,32.1442,7,0,0,0
0,1405687312,425629,-6.7271,20.0125,-26.6945,34.0346,-8.76787,-0.444078,3.14885,9.32674,1.0676,6.41518,-1.46007,32.2866,8,0,0,0
0,1405687313,426633,-6.92954,20.2639,-26.8165,34.3186,-8.77592,-0.423068,3.16619,9.33919,2.53314,6.22399,-1.17467,32.1097,7,0,0,0
0,1405687314,427640,-6.6621,20.2152,-26.6559,34.1113,-8.77088,-0.41165,3.16903,9.33491,3.16105,6.4989,-1.21991,32.2356,7,0,0,0
0,1405687315,428642,-6.8292,20.2201,-26.8446,34.2947,-8.77446,-0.432436,3.19031,9.34646,1.71351,5.45592,-2.05278,32.2192,6,0,0,0
0,1405687316,429644,-6.81974,19.9822,-26.5857,33.95,-8.76006,-0.436441,3.1542,9.32084,1.44112,6.45535,-2.10623,32.3115,6,0,0,0
0,1405687317,430650,-6.9162,19.8834,-26.41,33.7738,-8.79904,-0.42863,3.18375,9.36713,2.60639,5.183,-1.7127,32.333,8,0,0,0
0,1405687318,431651,-6.94229,20.0355,-26.9343,34.2793,-8.7879,-0.428407,3.1652,9.35036,1.82191,6.1643,-1.82293,32.3203,8,0,0,0
0,1405687319,432658,-7.0635,20.1973,-26.8246,34.313,-8.77753,-0.446721,3.17489,9.34476,2.14456,6.38507,-2.17047,32.2709,7,0,0,0
0,1405687320,433667,-6.78127,20.0003,-26.4641,33.8577,-8.78083,-0.42418,3.14103,9.33536,2.70266,6.8939,-2.00033,32.2489,7,0,0,0
0,1405687321,434675,-6.79701,20.2086,-26.9306,34.3489,-8.77799,-0.440247,3.18374,9.34789,1.1627,5.38727,-0.616502,32.3158,7,0,0,0
0,1405687322,435680,-6.82749,19.9028,-26.7882,34.0638,-8.77886,-0.437104,3.16961,9.34376,1.15984,6.51768,-2.76164,32.3899,7,0,0,0
0,1405687323,436688,-6.85637,20.1857,-26.7111,34.1754,-8.77483,-0.453605,3.15492,9.33578,2.60883,8.16876,-1.46481,32.4406,8,0,0,0
0,1405687324,437693,-6.89852,20.3535,-26.831,34.3766,-8.79437,-0.470948,3.14256,9.35085,1.13368,7.32138,-1.4666,32.4051,8,0,0,0
0,1405687325,438704,-6.69272,20.291,-26.3689,33.9387,-8.78061,-0.436037,3.18489,9.35055,0.660923,7.02027,-1.39124,32.4239,7,0,0,0
0,1405687326,439708,-6.83563,20.1359,-26.5017,33.9783,-8.77652,-0.423511,3.15878,9.33726,1.52638,6.41368,-1.82701,32.4161,7,0,0,0
0,1405687327,440716,-6.80973,20.1831,-26.3918,33.9155,-8.78519,-0.447385,3.16771,9.34955,2.46047,6.66515,-2.65757,32.265,8,0,0,0
0,1405687328,441718,-7.00572,20.189,-26.6344,34.1478,-8.78647,-0.454815,3.15294,9.34612,1.73615,6.77384,-2.07057,32.4517,7,0,0,0
0,1405687329,442722,-6.91488,20.2526,-26.8982,34.3729,-8.78218,-0.450732,3.14299,9.33854,2.94458,6.43658,-1.92019,32.4078,7,0,0,0
0,1405687330,443729,-6.64089,20.2306,-26.6849,34.1389,-8.75761,-0.430748,3.15311,9.3179,2.09822,6.40518,-1.26026,32.5263,7,0,0,0
0,1405687331,444737,-6.9958,20.2125,-26.6787,34.1941,-8.77368,-0.419448,3.16597,9.33684,1.88554,5.90002,-1.43449,32.4336,7,0,0,0
0,1405687332,445743,-6.78324,19.9414,-26.7054,34.0125,-8.78126,-0.427263,3.18342,9.35025,1.27355,7.12123,-1.42987,32.4977,8,0,0,0
0,1405687333,446748,-6.92886,20.2207,-26.6328,34.1496,-8.75296,-0.398055,3.16291,9.31541,0.839731,6.28876,-1.43313,32.4713,7,0,0,0
0,1405687334,447757,-7.00963,20.5074,-26.6645,34.3611,-8.79004,-0.451039,3.20866,9.36823,2.72692,7.116,-0.390351,32.4646,8,0,0,0
0,1405687335,448764,-6.81023,20.1618,-26.3024,33.8333,-8.77096,-0.390579,3.16309,9.33206,1.84452,6.76431,-1.67149,32.406,7,0,0,0
0,1405687336,449769,-7.03524,20.2422,-26.6196,34.1737,-8.77623,-0.423584,3.18257,9.34507,1.8617,7.06622,-2.42409,32.502,7,0,0,0
0,1405687337,450772,-6.69891,20.2282,-26.6205,34.0985,-8.76706,-0.416812,3.13476,9.31997,0.372617,6.92683,-1.07438,32.5657,8,0,0,0
0,1405687338,451781,-6.88704,20.3379,-26.4268,34.0505,-8.77778,-0.439067,3.14981,9.33614,1.07912,6.32422,-0.346258,32.5079,7,0,0,0
0,1405687339,452787,-6.88123,20.1358,-26.7247,34.1615,-8.78491,-0.421803,3.16732,9.34797,1.65309,6.68612,-2.66604,32.5982,8,0,0,0
0,1405687340,453789,-6.97837,20.2724,-26.5125,34.0966,-8.78766,-0.438378,3.16567,9.35075,1.48387,5.89435,-0.866095,32.5955,7,0,0,0
0,1405687341,454793,-6.96069,20.0438,-26.9471,34.298,-8.77768,-0.437202,3.19688,9.35195,1.1672,6.76481,-0.266718,32.6336,7,0,0,0
0,1405687342,455798,-6.92722,20.0108,-26.5461,33.9576,-8.78179,-0.428731,3.15737,9.34198,1.71569,5.91794,-1.52269,32.5905,7,0,0,0
0,1405687343,456803,-6.79522,20.0207,-26.6729,34.036,-8.78014,-0.424727,3.16086,9.34142,1.46332,7.57444,-2.24088,32.5604,8,0,0,0
0,1405687344,457818,-6.82285,20.3729,-26.8707,34.4041,-8.78167,-0.438073,3.18062,9.35019,2.7061,6.60559,-1.48666,32.6441,8,0,0,0
0,1405687345,458824,-6.45198,19.6844,-26.7221,33.8108,-8.77396,-0.430684,3.15216,9.33295,2.02931,6.06902,-0.861798,32.652,7,0,0,0
0,1405687346,459828,-7.02055,20.2245,-26.6056,34.1493,-8.767,-0.439358,3.16271,9.33039,1.65407,5.82994,-2.05916,32.5691,8,0,0,0
0,1405687347,460835,-6.93865,20.4724,-26.4993,34.1976,-8.77024,-0.446409,3.14581,9.32805,1.63899,6.04593,-1.85181,32.6386,7,0,0,0
0,1405687348,461839,-7.04429,20.364,-26.5886,34.2238,-8.77827,-0.420769,3.19234,9.35019,1.8964,6.76703,-0.86272,32.693,7,0,0,0
0,1405687349,462846,-7.29023,19.9012,-26.3909,33.848,-8.79171,-0.414859,3.18239,9.35916,1.38284,6.98978,-3.20123,32.7612,8,0,0,0
0,1405687350,463851,-6.78929,20.1607,-26.5573,34.027,-8.76985,-0.43092,3.16919,9.33487,0.99549,7.60261,-3.66174,32.7039,8,0,0,0
0,1405687351,464854,-6.80845,19.9637,-26.3713,33.769,-8.78772,-0.415938,3.15965,9.34775,1.60289,6.07422,-2.97267,32.7502,8,0,0,0
0,1405687352,465858,-7.06393,19.9106,-26.341,33.7665,-8.77995,-0.447227,3.17522,9.34717,1.143,6.63259,-0.778191,32.6969,8,0,0,0
0,1405687353,466871,-6.7783,20.2353,-26.6558,34.1459,-8.79644,-0.413092,3.16334,9.35706,2.80086,6.32885,-1.77169,32.7306,8,0,0,0
0,1405687354,467873,-6.60211,20.4689,-26.7163,34.2976,-8.78758,-0.446751,3.18097,9.35627,2.15174,6.59962,-1.71245,32.8403,9,0,0,0
0,1405687355,468880,-7.0963,19.971,-26.5842,33.9988,-8.79975,-0.433633,3.19384,9.37146,0.959534,6.29347,-1.74306,32.812,7,0,0,0
0,1405687356,469881,-7.02272,20.1798,-26.7441,34.2315,-8.78421,-0.422549,3.14702,9.34049,2.10854,6.05558,-1.36286,32.7799,8,0,0,0
0,1405687357,470884,-7.00793,19.9287,-26.5651,33.9406,-8.76009,-0.42072,3.1726,9.32639,1.08244,7.01826,-1.30004,32.8321,7,0,0,0
0,1405687358,471889,-6.81946,20.3282,-26.2691,33.9088,-8.76441,-0.429257,3.15893,9.3262,1.65323,5.70793,-2.36234,32.7999,7,0,0,0
0,1405687359,472896,-7.27208,20.0024,-26.2429,33.7886,-8.76274,-0.435098,3.1784,9.33152,2.36725,7.2016,-0.929154,32.8157,7,0,0,0
0,1405687360,473899,-6.77329,20.2357,-26.4145,33.9571,-8.76258,-0.403049,3.18059,9.33067,1.40481,6.1833,-0.632769,32.738,7,0,0,0
0,1405687361,474906,-7.07688,20.137,-26.7252,34.2027,-8.80183,-0.414577,3.14851,9.3572,1.97496,6.2558,-1.63251,32.8832,8,0,0,0
0,1405687362,475909,-6.96149,20.1391,-26.6292,34.1052,-8.78379,-0.42998,3.1607,9.34505,0.684706,7.18078,-2.04445,32.924,7,0,0,0
0,1405687363,476915,-6.87141,20.1579,-26.7622,34.2019,-8.77221,-0.404604,3.17141,9.33665,3.44859,6.26829,-2.79567,32.9118,8,0,0,0
0,1405687364,477921,-6.72477,19.9731,-26.5517,33.899,-8.77002,-0.395149,3.18703,9.33951,0.789203,7.49516,-2.55224,32.7991,6,0,0,0
0,1405687365,478924,-6.93961,20.079,-26.3114,33.8173,-8.77614,-0.41194,3.18453,9.34513,2.09567,7.28851,-2.07742,32.9916,7,0,0,0
0,1405687366,479932,-7.01674,20.0092,-26.6336,34.0433,-8.77821,-0.413757,3.19315,9.3501,1.01142,5.72602,-2.15922,32.9498,8,0,0,0
0,1405687367,480940,-7.1489,20.0852,-26.5906,34.082,-8.78153,-0.436642,3.14219,9.33699,2.057,6.60871,-1.8156,32.9966,8,0,0,0
0,1405687368,481942,-6.93874,20.2999,-26.541,34.1271,-8.77361,-0.417922,3.1214,9.3217,1.75836,7.68634,-1.16873,32.8714,9,0,0,0
0,1405687369,482943,-6.79764,20.1958,-26.4059,33.9315,-8.79261,-0.431519,3.19191,9.364,1.85327,6.33431,-1.86519,32.9035,7,0,0,0
0,1405687370,483950,-6.89053,20.1177,-26.2281,33.7656,-8.77687,-0.422334,3.19513,9.3499,0.938723,7.44051,-1.51183,32.8639,7,0,0,0
0,1405687371,484952,-7.06868,20.017,-26.537,33.9832,-8.77828,-0.437019,3.17543,9.34519,1.32227,6.25703,-1.21579,32.8889,7,0,0,0
0,1405687372,485962,-6.82341,20.3726,-26.5676,34.1678,-8.77334,-0.430806,3.16011,9.33507,2.28214,7.18043,-1.59527,32.8879,8,0,0,0
0,1405687373,486969,-6.87751,20.0645,-26.657,34.0658,-8.77065,-0.427594,3.19107,9.34291,1.88211,6.44117,-1.7547,33.0034,7,0,0,0
0,1405687374,487970,-6.93842,20.2155,-26.6482,34.1604,-8.7806,-0.421102,3.1456,9.33654,2.33296,4.82716,-1.70755,33.0205,8,0,0,0
0,1405687375,488978,-6.9968,20.0566,-26.2819,33.7929,-8.79057,-0.425715,3.16658,9.35322,1.57633,6.58669,-2.49746,32.9456,7,0,0,0
0,1405687376,489985,-7.01453,20.1872,-26.4037,33.9689,-8.77972,-0.429717,3.13928,9.33398,2.58469,6.46347,-2.25288,32.9204,7,0,0,0
0,1405687377,490990,-7.01301,20.1842,-26.5699,34.0961,-8.78965,-0.407871,3.18985,9.35946,0.668487,7.07918,-1.8341,32.9928,8,0,0,0
0,1405687378,491993,-6.98358,20.1617,-26.341,33.8985,-8.78924,-0.440553,3.13394,9.34165,2.96253,5.94294,-0.663226,33.0257,8,0,0,0
0,1405687379,492999,-7.01466,20.2264,-26.4895,34.0589,-8.77989,-0.436418,3.16249,9.34229,0.41711,5.70376,-1.694,33.097,8,0,0,0
0,1405687381,494003,-7.14463,19.7938,-26.6304,33.9414,-8.79179,-0.41197,3.14386,9.34608,1.71141,7.01303,-0.83676,33.0877,8,0,0,0
0,1405687382,495013,-6.99999,20.1252,-26.1402,33.7244,-8.78813,-0.436639,3.14686,9.34477,2.35831,7.28609,-0.528708,33.0587,8,0,0,0
0,1405687383,496015,-6.78493,20.0122,-26.4369,33.8442,-8.78388,-0.446319,3.10652,9.32772,1.59,7.81683,-2.31981,33.0644,8,0,0,0
0,1405687384,497023,-7.35454,20.31,-25.9004,33.7255,-8.78615,-0.422938,3.15717,9.34575,1.49252,6.28829,-1.49034,33.0929,8,0,0,0
0,1405687385,498027,-7.48851,19.9143,-26.4184,33.9203,-8.78739,-0.447902,3.15462,9.34722,1.25295,5.90374,-2.55859,33.1409,8,0,0,0
0,1405687386,499035,-7.05722,20.1376,-26.6293,34.124,-8.77527,-0.427302,3.17984,9.34341,0.92198,5.90459,-2.02224,33.2208,7,0,0,0
0,1405687387,500036,-6.7921,20.1052,-26.3102,33.802,-8.76843,-0.419609,3.17317,9.33437,2.22693,6.65439,-1.02712,33.0755,8,0,0,0
0,1405687388,501037,-7.10999,20.141,-26.7291,34.2148,-8.76953,-0.432742,3.15758,9.33071,1.51824,6.51803,-0.987325,33.1703,7,0,0,0
0,1405687389,502041,-7.14001,20.1725,-26.618,34.153,-8.78234,-0.415585,3.17195,9.34684,1.89402,7.36325,-1.74159,33.3327,7,0,0,0
0,1405687390,503047,-7.01773,20.3173,-26.3639,34.0161,-8.76103,-0.438769,3.19054,9.33422,1.74653,6.51332,-1.93461,33.3677,8,0,0,0
0,1405687391,504052,-6.67295,20.4319,-26.0922,33.8052,-8.78729,-0.437226,3.16548,9.35029,1.40613,6.36007,-1.9268,33.2825,7,0,0,0
0,1405687392,505057,-6.84741,20.176,-26.5483,34.0407,-8.76147,-0.415061,3.1435,9.31758,2.57317,6.80632,-1.78975,33.2409,9,0,0,0
0,1405687393,506065,-6.58443,20.0995,-26.4415,33.8599,-8.75602,-0.408242,3.14738,9.31346,2.27901,6.86646,-2.34457,33.2692,7,0,0,0
0,1405687394,507066,-6.87356,20.1072,-26.631,34.0699,-8.78776,-0.439282,3.14259,9.3431,2.38389,6.69084,-2.37854,33.2635,9,0,0,0
0,1405687395,508072,-7.16521,20.3381,-26.3571,34.054,-8.7867,-0.422109,3.14163,9.34099,1.77751,7.48472,-1.34456,33.2972,8,0,0,0
0,1405687396,509077,-6.74228,20.1628,-26.3924,33.8903,-8.78077,-0.430255,3.17383,9.34667,3.48734,6.4259,-2.50209,33.3436,7,0,0,0
0,1405687397,510088,-7.17164,20.1802,-26.4387,34.0247,-8.76897,-0.43151,3.15507,9.32928,0.889855,7.37072,-1.63869,33.1998,8,0,0,0
0,1405687398,511091,-6.9122,19.902,-26.2268,33.6409,-8.77925,-0.437917,3.18036,9.34782,1.69292,5.70576,-1.18638,33.2277,7,0,0,0
0,1405687399,512097,-6.96979,20.5706,-26.3489,34.1466,-8.77086,-0.424938,3.13442,9.3238,1.66442,5.91803,-1.78154,33.3149,7,0,0,0
0,1405687400,513105,-7.03178,20.3563,-26.554,34.1897,-8.79429,-0.416712,3.16059,9.35427,2.23962,7.05767,-2.07194,33.2779,7,0,0,0
0,1405687401,514110,-7.11789,20.231,-26.3111,33.9445,-8.7701,-0.40624,3.15981,9.33081,1.44196,7.01201,-1.27997,33.4205,7,0,0,0
0,1405687402,515115,-7.24773,20.4266,-26.6015,34.3135,-8.75954,-0.42593,3.13396,9.31304,0.931667,7.43772,-1.03594,33.3369,7,0,0,0
0,1405687403,516120,-6.8179,20.3711,-26.5464,34.1493,-8.79509,-0.402398,3.18497,9.36267,1.10374,6.70585,-1.92114,33.4229,8,0,0,0
0,1405687404,517126,-7.2121,20.284,-26.2727,33.9662,-8.79029,-0.415841,3.17925,9.3568,1.08345,5.69123,-1.61056,33.4936,8,0,0,0
0,1405687405,518128,-7.22912,20.0819,-26.4005,33.949,-8.78116,-0.425883,3.14435,9.33686,1.89606,7.09311,-1.48135,33.6042,7,0,0,0
0,1405687406,519132,-6.76423,19.9014,-26.7031,33.9835,-8.78744,-0.429877,3.12677,9.33705,1.98761,6.85341,-2.1007,33.4819,7,0,0,0
0,1405687407,520136,-6.84659,20.6281,-26.5025,34.275,-8.77511,-0.432319,3.14893,9.33302,0.774486,6.20714,-1.15518,33.4457,7,0,0,0
0,1405687408,521144,-6.87903,19.9375,-26.7109,34.0338,-8.78666,-0.409384,3.15477,9.34482,1.46979,7.08343,-2.58156,33.5237,7,0,0,0
0,1405687409,522148,-6.91299,20.266,-26.6403,34.179,-8.79089,-0.433773,3.15969,9.35156,-0.666713,8.29693,-1.91452,33.527,7,0,0,0
0,1405687410,523152,-6.94104,20.0429,-26.607,34.0269,-8.75937,-0.432887,3.14876,9.31819,0.900159,6.96624,-0.264663,33.5034,7,0,0,0
0,1405687411,524153,-6.81161,19.9813,-26.4733,33.8598,-8.77282,-0.431834,3.17682,9.3403,1.05993,6.60782,-1.11696,33.483,8,0,0,0
0,1405687412,525155,-6.95273,19.9622,-26.6551,34.0195,-8.77755,-0.438923,3.15069,9.33621,-0.536931,7.27214,-0.83068,33.5682,6,0,0,0
0,1405687413,526157,-7.2787,20.0782,-26.352,33.9197,-8.78368,-0.424992,3.15244,9.34193,1.48348,6.91046,-1.29125,33.5792,7,0,0,0
0,1405687414,527162,-7.26671,20.3849,-26.6665,34.3431,-8.79534,-0.421908,3.18178,9.36268,1.78763,6.29758,-2.64355,33.6006,9,0,0,0
0,1405687415,528169,-7.22294,19.7907,-26.3135,33.7082,-8.79442,-0.418034,3.19103,9.36479,2.34003,6.41295,-2.14919,33.542,7,0,0,0
0,1405687416,529172,-6.76671,19.4741,-26.5623,33.6242,-8.76088,-0.484919,3.16364,9.3272,1.37913,7.52167,-2.63752,33.5364,8,0,0,0
0,1405687417,530173,-6.57017,19.8943,-26.7796,34.0014,-8.78605,-0.448043,3.15448,9.34591,1.17776,7.40076,-2.29225,33.5575,7,0,0,0
0,1405687418,531175,-6.6563,20.0291,-26.6527,33.9977,-8.76242,-0.447594,3.1472,9.32123,1.93866,7.87623,-0.773487,33.6352,7,0,0,0
0,1405687419,532184,-6.73326,20.4118,-26.6124,34.2081,-8.76531,-0.427886,3.1511,9.32433,1.43713,7.57486,-2.19193,33.5967,8,0,0,0
0,1405687420,533191,-6.78235,20.2282,-26.6488,34.1371,-8.76192,-0.418137,3.15041,9.32047,1.63745,6.18466,-0.919595,33.5429,8,0,0,0
0,1405687421,534192,-6.55084,20.4321,-26.4892,34.089,-8.77007,-0.407721,3.15932,9.33069,1.15403,7.45311,-1.68365,33.7359,7,0,0,0
0,1405687422,535199,-6.72106,20.4929,-26.8047,34.4038,-8.78079,-0.440175,3.17177,9.34645,0.96217,6.46667,-1.36577,33.7659,6,0,0,0
0,1405687423,536206,-7.11347,20.2375,-26.7773,34.3101,-8.76446,-0.42856,3.13279,9.31739,2.23102,7.47728,-2.16132,33.6452,8,0,0,0
0,1405687424,537209,-6.79071,20.3273,-26.6082,34.1659,-8.79342,-0.435539,3.12308,9.34171,1.72679,7.81748,-2.75,33.6732,7,0,0,0
0,1405687425,538212,-6.73121,20.1372,-26.5906,34.0275,-8.77561,-0.412437,3.15191,9.33359,1.19265,5.65785,-2.49223,33.7371,7,0,0,0
0,1405687426,539213,-6.80932,20.1422,-26.6622,34.102,-8.77889,-0.450949,3.16357,9.3424,1.70569,6.31363,-1.85256,33.6258,8,0,0,0
0,1405687427,540214,-7.19615,20.2876,-26.1647,33.8816,-8.78661,-0.432493,3.14119,9.34123,0.945941,6.60069,-0.795874,33.8433,7,0,0,0
0,1405687428,541218,-6.73179,20.1215,-26.4796,33.9317,-8.77307,-0.430356,3.13773,9.32723,2.18063,5.93439,-1.11014,33.7696,8,0,0,0
0,1405687429,542219,-6.97017,20.3612,-26.8221,34.3887,-8.7688,-0.434625,3.14109,9.32455,1.22636,6.41378,-2.80449,33.7485,7,0,0,0
0,1405687430,543222,-6.90471,20.1609,-26.868,34.2932,-8.78882,-0.412269,3.1695,9.35195,2.17292,6.37218,-2.25246,33.8037,8,0,0,0
0,1405687431,544227,-6.50528,19.825,-26.4038,33.6528,-8.77943,-0.432851,3.14499,9.33577,1.42777,6.03117,-2.29821,33.6594,7,0,0,0
0,1405687432,545236,-6.5087,20.0758,-26.7621,34.0824,-8.79114,-0.430703,3.18274,9.35946,1.19797,7.01037,-2.74066,33.7653,8,0,0,0
0,1405687433,546238,-6.83011,20.1859,-26.6549,34.1263,-8.81161,-0.419986,3.17743,9.3764,1.66989,7.03934,-0.135183,33.7586,8,0,0,0
0,1405687434,547240,-6.88987,20.1477,-26.663,34.1221,-8.75482,-0.435761,3.17492,9.32293,1.93263,6.52252,-2.16606,33.6624,7,0,0,0
0,1405687435,548248,-6.41921,20.2616,-26.8561,34.2489,-8.78789,-0.422436,3.15929,9.34808,0.468181,6.0381,-2.17647,33.7493,8,0,0,0
0,1405687436,549255,-6.39632,20.1261,-26.1831,33.6382,-8.76403,-0.42814,3.15634,9.32492,0.788072,5.77354,-1.41754,33.8229,9,0,0,0
0,1405687437,550259,-6.98847,20.4668,-26.2757,34.0315,-8.77363,-0.437566,3.13931,9.32863,2.29615,5.25303,-3.335,33.8675,9,0,0,0
0,1405687438,551266,-6.69632,20.2297,-26.6669,34.1351,-8.77247,-0.418332,3.15792,9.33293,2.93208,5.11906,-1.3223,33.9231,7,0,0,0
0,1405687439,552271,-6.72887,20.0254,-26.4229,33.8299,-8.78463,-0.431029,3.16924,9.34878,2.56704,6.02263,-1.00309,33.8804,7,0,0,0
0,1405687440,553273,-7.11886,20.4839,-26.8272,34.4959,-8.77998,-0.427342,3.15342,9.33888,1.8853,6.18063,-1.87117,33.8775,7,0,0,0
0,1405687441,554278,-6.66299,20.1552,-26.4812,33.9394,-8.78832,-0.424521,3.1714,9.35267,1.51958,7.07194,-1.41706,33.8521,7,0,0,0
0,1405687442,555285,-6.96871,20.2602,-26.3511,33.962,-8.77811,-0.43358,3.17885,9.34603,2.23318,6.65097,-0.893345,33.8837,8,0,0,0
0,1405687443,556288,-7.14806,20.3271,-26.2059,33.9269,-8.77172,-0.411394,3.16865,9.33556,2.25304,6.07262,-1.76626,33.8907,7,0,0,0
0,1405687444,557290,-7.30466,20.1948,-26.6081,34.1933,-8.78595,-0.423128,3.16153,9.34704,0.928037,6.08839,-2.22543,34.0012,8,0,0,0
0,1405687445,558294,-6.67693,20.007,-26.6963,34.0228,-8.76244,-0.436946,3.13963,9.31818,0.99164,6.3063,-2.39782,33.914,8,0,0,0
0,1405687446,559296,-7.34198,20.3779,-26.6931,34.3756,-8.79535,-0.421765,3.14692,9.35089,2.03475,6.88765,-2.13578,33.9943,7,0,0,0
0,1405687447,560302,-6.84796,20.2728,-26.4027,33.985,-8.76466,-0.433817,3.1379,9.31955,1.6401,5.89646,-1.9407,33.8719,8,0,0,0
0,1405687448,561304,-6.6807,19.9606,-26.4033,33.7668,-8.77022,-0.449612,3.16475,9.33459,2.20473,6.17067,-2.40971,34.0115,8,0,0,0
0,1405687449,562312,-6.95871,20.3842,-26.1495,33.8783,-8.78317,-0.436229,3.14021,9.33784,1.13442,6.69113,-1.3188,33.9953,7,0,0,0
0,1405687450,563317,-6.89308,20.2946,-26.4963,34.0799,-8.77835,-0.42774,3.16219,9.34033,0.716686,5.6988,-1.55658,34.0161,7,0,0,0
0,1405687451,564324,-7.03443,20.01,-25.9785,33.5375,-8.75595,-0.43222,3.14261,9.31287,2.62541,6.27556,-2.1661,33.9155,8,0,0,0
0,1405687452,565331,-6.66715,20.2884,-26.4905,34.0267,-8.78298,-0.451691,3.16698,9.34743,1.95083,6.61409,-1.9457,34.1162,7,0,0,0
0,1405687453,566339,-7.00389,20.4895,-26.5202,34.2374,-8.78554,-0.468426,3.15727,9.34738,0.441118,6.89511,-1.37203,33.9841,7,0,0,0
0,1405687454,567343,-6.61506,19.9861,-26.6809,33.9864,-8.75915,-0.424373,3.18131,9.32864,1.08399,6.85366,-1.03991,34.0449,7,0,0,0
0,1405687455,568348,-7.04109,20.5528,-26.2988,34.1119,-8.78711,-0.430636,3.15398,9.34593,1.747,6.83124,-1.92685,34.0086,8,0,0,0
0,1405687456,569350,-6.82476,20.1982,-26.051,33.663,-8.79303,-0.43664,3.16303,9.35483,1.74871,6.66064,-1.47659,34.0836,6,0,0,0
0,1405687457,570351,-6.82932,19.8785,-26.0812,33.4966,-8.79757,-0.442669,3.15884,9.35796,1.78392,7.62849,-1.054,34.0595,8,0,0,0
0,1405687458,571358,-7.02992,20.2769,-26.1278,33.8118,-8.81459,-0.441802,3.14196,9.36825,1.56233,5.89885,-2.18065,34.0431,6,0,0,0
0,1405687459,572361,-6.63539,19.7665,-26.161,33.4536,-8.77328,-0.443024,3.16936,9.33871,1.97823,6.48906,-1.4923,34.1577,9,0,0,0
0,1405687460,573363,-7.01174,20.3222,-26.5991,34.2004,-8.77705,-0.437521,3.13942,9.33188,1.70502,6.45914,-1.0771,34.1068,7,0,0,0
0,1405687461,574368,-7.08223,20.1181,-26.1321,33.7311,-8.77102,-0.418204,3.14516,9.32726,1.40412,7.06518,-2.04523,34.0758,8,0,0,0
0,1405687462,575375,-7.13709,20.1768,-26.044,33.7095,-8.78077,-0.426207,3.15899,9.34146,1.78465,7.18935,-2.39038,34.1391,8,0,0,0
0,1405687463,576385,-6.56274,19.6895,-26.3514,33.5431,-8.7725,-0.414764,3.15966,9.33339,1.05408,7.0552,-2.5791,34.085,7,0,0,0
0,1405687464,577393,-7.2858,20.1671,-26.3581,33.9786,-8.7789,-0.417873,3.17192,9.34371,1.74864,7.17264,-1.27133,34.0791,7,0,0,0
0,1405687465,578397,-7.32226,20.2302,-26.3864,34.0459,-8.76164,-0.442807,3.15419,9.32263,3.00211,7.4813,-1.02711,34.1351,7,0,0,0
0,1405687466,579401,-6.67064,19.968,-26.7071,34.0072,-8.78889,-0.424648,3.14257,9.34348,1.11465,6.86964,-2.1634,34.1308,7,0,0,0
0,1405687467,580405,-6.86499,20.1342,-26.6011,34.0607,-8.77863,-0.419353,3.16432,9.34094,2.62981,6.54139,-1.64414,34.1746,7,0,0,0
0,1405687468,581406,-6.75324,20.2924,-26.7937,34.2825,-8.76641,-0.432045,3.14018,9.32188,1.61855,6.84916,-1.55327,34.1459,8,0,0,0
0,1405687469,582408,-6.71922,20.0521,-26.5327,33.9296,-8.78674,-0.424957,3.16385,9.34865,1.73914,6.78604,-2.41544,34.1596,7,0,0,0
0,1405687470,583414,-6.58444,20.3508,-26.6353,34.1607,-8.79062,-0.411149,3.15392,9.34833,1.70977,6.21629,-1.52664,34.1578,8,0,0,0
0,1405687471,584419,-6.83981,20.0342,-26.6753,34.0548,-8.78291,-0.420698,3.12388,9.33141,1.50769,8.27983,-0.538147,34.1453,8,0,0,0
0,1405687472,585425,-6.88232,20.2835,-26.3594,33.9648,-8.78353,-0.443964,3.14418,9.33988,2.20562,5.95565,-0.29818,34.1825,7,0,0,0
0,1405687473,586429,-6.94461,20.1959,-26.147,33.7604,-8.77871,-0.405798,3.13716,9.33124,0.75066,6.09783,-2.06496,34.1877,8,0,0,0
0,1405687474,587437,-6.86628,20.4077,-25.9864,33.7478,-8.76818,-0.419883,3.15831,9.3291,2.43221,6.90692,-1.86754,34.1476,7,0,0,0
0,1405687475,588445,-6.84872,20.0293,-26.2495,33.7211,-8.78324,-0.431169,3.17677,9.35004,2.11862,6.2265,-1.40854,34.2008,7,0,0,0
0,1405687476,589447,-6.89178,19.9979,-26.3626,33.7994,-8.78218,-0.409997,3.15401,9.34037,3.40941,7.61365,-1.46917,34.1727,8,0,0,0
0,1405687477,590453,-6.90583,20.4206,-26.642,34.2708,-8.76808,-0.42025,3.16952,9.33283,2.60772,5.7784,-2.12176,34.2115,7,0,0,0
0,1405687478,591454,-6.78029,20.0256,-26.5928,33.9732,-8.77978,-0.418541,3.13177,9.331,2.0398,7.49947,-1.91836,34.1513,8,0,0,0
0,1405687479,592462,-7.02194,19.9676,-26.077,33.586,-8.76662,-0.430541,3.17924,9.33523,1.99257,6.48827,-1.42283,34.2416,7,0,0,0
0,1405687480,593470,-6.51415,20.0892,-26.5033,33.8885,-8.78355,-0.41879,3.12707,9.33299,0.604116,6.31905,-0.753123,34.2329,8,0,0,0
0,1405687481,594473,-6.77218,20.0164,-26.3076,33.7433,-8.77746,-0.428248,3.15667,9.33765,1.17759,6.39631,-2.42308,34.3091,7,0,0,0
0,1405687482,595478,-7.083,20.0404,-26.3385,33.8453,-8.77702,-0.433576,3.15564,9.33714,0.993267,7.31838,-1.91885,34.2644,8,0,0,0
0,1405687483,596481,-6.88172,20.1051,-26.6049,34.0499,-8.7818,-0.430716,3.10917,9.3259,2.65,6.87608,-0.84496,34.2239,8,0,0,0
0,1405687484,597483,-6.78452,19.7312,-26.3373,33.6007,-8.79427,-0.428605,3.13943,9.34767,1.87283,6.55443,-1.83033,34.2265,8,0,0,0
0,1405687485,598486,-6.97652,19.8918,-26.4592,33.8296,-8.77566,-0.442124,3.15527,9.33613,2.4092,7.509,-1.084,34.2384,8,0,0,0
0,1405687486,599495,-6.97578,20.4605,-26.1902,33.9591,-8.76165,-0.422509,3.16336,9.3248,0.975977,5.72408,-2.00306,34.2424,8,0,0,0
0,1405687487,600499,-6.92926,20.1392,-26.5222,34.0152,-8.76321,-0.453459,3.12785,9.31574,0.471379,6.24847,-1.83166,34.1562,8,0,0,0
0,1405687488,601500,-6.92213,20.1195,-26.3043,33.8324,-8.77574,-0.437124,3.1333,9.32857,1.02228,6.24806,-1.2459,34.239,7,0,0,0
0,1405687489,602508,-6.50319,19.9131,-26.1652,33.5178,-8.78363,-0.429144,3.15116,9.34164,1.73935,8.02857,-2.5641,34.254,7,0,0,0
0,1405687490,603509,-6.86081,20.7248,-26.3376,34.209,-8.78809,-0.421124,3.15553,9.34694,2.48952,7.02325,-1.96585,34.367,8,0,0,0
0,1405687491,604512,-6.8893,20.2859,-26.3999,33.9991,-8.77496,-0.43064,3.20056,9.35035,1.82911,6.15275,-3.18219,34.2979,7,0,0,0
0,1405687492,605513,-7.31798,20.1806,-26.4053,34.0301,-8.76725,-0.425235,3.17182,9.33306,0.920513,8.37123,-1.6908,34.3165,7,0,0,0
0,1405687493,606520,-6.8943,20.3279,-26.4007,34.0258,-8.77949,-0.454379,3.14958,9.33841,1.38453,7.29125,-1.64581,34.2556,7,0,0,0
0,1405687494,607521,-7.09857,20.1271,-26.0303,33.661,-8.78493,-0.450595,3.13752,9.33927,1.37682,6.9531,-1.53477,34.2627,7,0,0,0
0,1405687495,608529,-6.90057,20.0792,-26.5862,34.0238,-8.7684,-0.427302,3.16378,9.3315,0.973588,7.10115,-1.17188,34.348,7,0,0,0
0,1405687496,609532,-6.61182,19.9715,-26.3476,33.7161,-8.77712,-0.440087,3.13099,9.32924,0.25484,7.03632,-1.35787,34.3931,7,0,0,0
0,1405687497,610535,-6.86765,20.2245,-26.7026,34.1939,-8.79446,-0.427043,3.14758,9.35052,2.36419,8.22778,-1.53829,34.3587,7,0,0,0
0,1405687498,611542,-6.9069,20.2021,-26.655,34.1515,-8.77163,-0.397892,3.15652,9.33078,0.344301,7.05173,-2.08373,34.301,7,0,0,0
0,1405687499,612546,-6.71774,19.9391,-26.2964,33.6778,-8.79001,-0.429163,3.19252,9.36166,2.27652,7.13505,-1.13781,34.4312,6,0,0,0
0,1405687500,613555,-6.76441,19.8995,-26.1003,33.5108,-8.77641,-0.439327,3.1512,9.33534,2.12828,6.43895,-1.64439,34.4849,7,0,0,0
0,1405687501,614559,-6.33879,19.9523,-26.4104,33.7014,-8.78709,-0.431086,3.1459,9.34321,0.956058,6.43864,-1.59019,34.3124,7,0,0,0
0,1405687502,615560,-6.79728,20.2468,-26.2798,33.8639,-8.78725,-0.412251,3.18286,9.35501,1.07374,6.48364,-2.82457,34.3701,8,0,0,0
0,1405687503,616566,-7.12547,20.6972,-26.5639,34.4208,-8.76197,-0.42116,3.16391,9.32522,1.58771,5.79612,-2.23409,34.3742,7,0,0,0
0,1405687504,617581,-7.01412,20.384,-26.55,34.1995,-8.78564,-0.426348,3.15496,9.34468,1.22818,6.68214,-1.71124,34.42,8,0,0,0
0,1405687505,618585,-7.00993,19.8755,-26.352,33.7432,-8.78093,-0.4372,3.14213,9.33642,1.75609,5.81082,-1.95735,34.3867,7,0,0,0
0,1405687506,619591,-6.8443,20.1582,-26.536,34.02,-8.77179,-0.448067,3.11455,9.3191,2.90548,6.51133,-2.44003,34.3618,6,0,0,0
0,1405687507,620597,-6.89786,20.0191,-26.2575,33.7313,-8.79004,-0.445318,3.18643,9.36037,2.1714,7.37997,-1.31626,34.3985,8,0,0,0
0,1405687508,621605,-6.71515,19.9449,-26.469,33.8157,-8.78114,-0.408906,3.14656,9.33683,1.19243,7.83839,-1.98578,34.4982,7,0,0,0
0,1405687509,622611,-6.88611,20.3182,-26.45,34.0565,-8.79893,-0.425935,3.13685,9.35107,1.74142,7.38998,-1.82768,34.5032,8,0,0,0
0,1405687510,623617,-7.04982,20.1191,-26.1805,33.7623,-8.78885,-0.430747,3.18455,9.35792,2.02302,7.02334,-1.22176,34.5098,7,0,0,0
0,1405687511,624623,-6.84462,20.0046,-26.4726,33.8797,-8.77959,-0.445296,3.13345,9.33263,2.23435,7.04054,-2.97569,34.5623,7,0,0,0
0,1405687512,625630,-7.11141,20.1916,-26.3091,33.9182,-8.78817,-0.432407,3.16245,9.34987,2.11562,6.75266,-1.59192,34.4895,8,0,0,0
0,1405687513,626635,-6.89969,20.0483,-26.6431,34.0499,-8.79948,-0.439779,3.15873,9.35958,2.7675,6.85599,-2.09748,34.4908,8,0,0,0
0,1405687514,627639,-6.86755,20.0452,-26.6032,34.0103,-8.77996,-0.431516,3.11306,9.3255,1.33446,6.8506,-2.04048,34.4809,8,0,0,0
0,1405687515,628647,-6.70486,19.9797,-26.4662,33.8319,-8.7736,-0.421404,3.14684,9.33039,0.175165,7.52633,-2.55845,34.482,7,0,0,0
0,1405687516,629654,-6.90419,20.4944,-26.2233,33.9904,-8.77872,-0.424347,3.15068,9.33664,0.332606,7.08866,-0.675554,34.5726,7,0,0,0
0,1405687517,630658,-6.80883,20.3136,-26.2346,33.8712,-8.77696,-0.433294,3.14156,9.33232,1.62937,7.3576,-1.18195,34.559,8,0,0,0
0,1405687518,631665,-6.8908,19.9176,-26.3319,33.7278,-8.79718,-0.413331,3.16961,9.3599,1.19527,8.00129,-2.40452,34.5308,8,0,0,0
0,1405687519,632667,-6.71437,20.2518,-26.3601,33.9127,-8.78407,-0.4517,3.17756,9.35205,0.776601,6.74193,-1.8626,34.6055,8,0,0,0
0,1405687520,633673,-6.90569,19.5603,-26.1879,33.4081,-8.77633,-0.421253,3.13289,9.32826,1.87924,6.22204,-1.17381,34.684,6,0,0,0
0,1405687521,634676,-7.21626,20.4669,-26.2634,34.0695,-8.78732,-0.428095,3.16545,9.34988,2.74033,7.65099,-2.18533,34.5627,8,0,0,0
0,1405687522,635679,-6.89452,20.2919,-26.6512,34.1992,-8.75517,-0.433196,3.14607,9.31335,0.915193,6.03491,-1.27334,34.633,8,0,0,0
0,1405687523,636683,-6.72332,19.9984,-26.5635,33.9228,-8.77594,-0.431936,3.14886,9.33376,1.07102,5.93341,-1.89219,34.7415,7,0,0,0
0,1405687524,637691,-7.25026,20.5809,-26.3827,34.2372,-8.78265,-0.433483,3.15729,9.34298,1.99255,6.97528,-1.42739,34.7497,8,0,0,0
0,1405687525,638694,-7.01078,20.196,-26.1878,33.8058,-8.77482,-0.41848,3.15472,9.33407,1.43997,7.36347,-2.28276,34.6284,7,0,0,0
0,1405687526,639702,-7.19877,20.1895,-26.5003,34.0838,-8.77385,-0.417793,3.15329,9.33264,2.66187,6.17084,-2.71061,34.7288,8,0,0,0
0,1405687527,640707,-7.34412,20.3619,-26.3516,34.102,-8.77719,-0.420485,3.15142,9.33528,0.747653,7.7861,-2.54624,34.6908,8,0,0,0
0,1405687528,641712,-7.12341,20.3828,-25.9608,33.7663,-8.77761,-0.419884,3.16022,9.33862,1.922,7.70494,-1.47042,34.6643,8,0,0,0
0,1405687529,642720,-6.70739,20.2299,-26.3615,33.8994,-8.77621,-0.417806,3.16691,9.33947,1.7414,6.70218,-1.86306,34.7363,8,0,0,0
0,1405687530,643727,-7.32791,20.4568,-26.3356,34.143,-8.76845,-0.437418,3.15119,9.32776,1.91183,6.6232,-1.49461,34.8111,7,0,0,0
0,1405687531,644732,-6.97303,20.2745,-26.5864,34.1543,-8.80136,-0.429958,3.16223,9.36207,2.11746,6.67524,-1.94986,34.7806,8,0,0,0
0,1405687532,645741,-6.85265,20.2945,-26.7832,34.2953,-8.7746,-0.421081,3.18605,9.34462,1.34734,6.15289,-1.59763,34.8552,7,0,0,0
0,1405687533,646748,-7.14942,20.2685,-26.4838,34.1075,-8.79025,-0.423452,3.13685,9.34278,1.21403,6.56034,-3.24851,34.7063,7,0,0,0
0,1405687534,647753,-6.95289,19.994,-26.2868,33.7506,-8.78383,-0.438853,3.18319,9.35313,2.00477,7.22746,-1.21622,34.8179,7,0,0,0
0,1405687535,648758,-6.35752,19.9566,-26.104,33.468,-8.77607,-0.414802,3.15772,9.3361,2.50363,7.44499,-0.425704,34.8252,7,0,0,0
0,1405687536,649764,-6.88965,20.1916,-26.3303,33.8888,-8.78224,-0.429476,3.15927,9.34308,1.55141,6.55996,-0.577119,34.8224,8,0,0,0
0,1405687537,650767,-6.8161,20.4969,-26.0606,33.8488,-8.78366,-0.42954,3.17761,9.35064,2.13618,6.4528,-1.53877,34.8355,7,0,0,0
0,1405687538,651768,-6.77171,20.0242,-26.4689,33.8737,-8.77818,-0.434121,3.16882,9.34272,0.740344,7.64095,-0.542848,34.9102,9,0,0,0
0,1405687539,652774,-7.07986,19.9971,-26.2334,33.7373,-8.78222,-0.428113,3.15716,9.34229,0.179154,6.92049,-1.47119,34.7294,8,0,0,0
0,1405687540,653779,-6.975,20.2039,-26.2921,33.8839,-8.77828,-0.429761,3.17422,9.34444,1.46843,6.9287,-1.05311,34.8874,8,0,0,0
0,1405687541,654782,-6.78235,19.9614,-26.2901,33.6991,-8.77623,-0.424213,3.15268,9.33496,1.29732,7.77501,-0.70927,34.9577,7,0,0,0
0,1405687542,655786,-7.0633,20.1188,-26.2087,33.7869,-8.77857,-0.427704,3.14954,9.33626,1.16553,6.41263,-0.823201,35.0593,7,0,0,0
0,1405687543,656787,-7.04421,20.39,-26.0308,33.8079,-8.76853,-0.433235,3.1582,9.33,2.33834,6.64269,-1.87658,34.9515,7,0,0,0
0,1405687544,657794,-6.88882,19.9797,-26.2637,33.7109,-8.78254,-0.418871,3.14028,9.33648,1.48384,7.16922,-2.42339,34.9013,7,0,0,0
0,1405687545,658799,-6.87615,20.6755,-26.4742,34.2876,-8.79583,-0.429364,3.15628,9.35485,2.22689,5.78819,-1.87064,34.9069,7,0,0,0
0,1405687546,659803,-6.79538,20.4162,-26.176,33.8848,-8.77634,-0.423384,3.15548,9.33597,0.912991,5.66034,-2.29484,34.945,6,0,0,0
0,1405687547,660810,-7.46005,19.9658,-26.3091,33.8594,-8.78453,-0.446554,3.18008,9.35309,-0.0156012,6.74309,-2.48296,34.9081,7,0,0,0
0,1405687548,661820,-6.43592,19.9098,-26.6027,33.8456,-8.79705,-0.436929,3.1378,9.35012,0.951736,6.52394,-2.9071,34.9614,7,0,0,0
0,1405687549,662823,-6.76465,20.3842,-26.3254,33.975,-8.77389,-0.442316,3.13697,9.32831,2.5176,6.7243,-2.16637,35.0473,8,0,0,0
0,1405687550,663833,-6.73155,19.8659,-26.3919,33.712,-8.77531,-0.432162,3.12714,9.32587,0.85541,6.64563,-1.76911,34.881,7,0,0,0
0,1405687551,664835,-7.0247,20.4337,-26.5261,34.2128,-8.80164,-0.432507,3.16807,9.36443,2.41257,6.42772,-2.06342,34.9754,8,0,0,0
0,1405687552,665840,-7.02139,20.2412,-26.1553,33.8099,-8.78176,-0.431217,3.1461,9.33827,1.93566,8.05548,-3.72448,35.0543,8,0,0,0
0,1405687553,666847,-7.07845,20.0586,-26.238,33.7769,-8.78849,-0.417829,3.16751,9.35121,1.46028,6.62202,-1.98172,34.9891,7,0,0,0
0,1405687554,667851,-6.79593,19.73,-26.2263,33.5153,-8.78161,-0.431199,3.1762,9.34831,0.912641,5.50166,-1.39879,34.964,8,0,0,0
0,1405687555,668865,-6.84978,20.0846,-26.3144,33.8047,-8.79426,-0.417865,3.16108,9.35447,1.19876,8.18947,-1.779,35.0251,7,0,0,0
0,1405687556,669872,-6.73965,19.8473,-26.1261,33.495,-8.78565,-0.448968,3.17651,9.35304,2.67086,6.43777,-2.00191,35.0619,8,0,0,0
0,1405687557,670880,-6.82972,20.3829,-26.2822,33.9538,-8.77646,-0.447636,3.15983,9.33869,1.11568,6.74737,-1.38066,35.033,8,0,0,0
0,1405687558,671883,-7.02369,20.1121,-26.6119,34.0884,-8.78982,-0.42834,3.17193,9.35444,1.96844,7.42557,-1.75547,35.0022,8,0,0,0
0,1405687559,672886,-7.01534,20.1394,-26.3132,33.8703,-8.76308,-0.432648,3.16611,9.32754,2.0572,6.80722,-1.92116,35.1373,7,0,0,0
0,1405687560,673889,-6.7394,19.9007,-26.3573,33.7071,-8.78168,-0.429326,3.17081,9.34646,2.15318,7.04181,-2.02054,35.0846,8,0,0,0
0,1405687561,674891,-6.74811,20.205,-26.4506,33.962,-8.77472,-0.440123,3.15337,9.33451,0.992801,7.27316,-1.90794,35.0956,7,0,0,0
0,1405687562,675902,-6.79348,19.8913,-26.1581,33.5568,-8.78078,-0.431424,3.1285,9.33144,0.999855,7.8806,-1.16362,35.137,7,0,0,0
0,1405687563,676903,-7.09453,20.2339,-26.3734,33.9897,-8.78357,-0.416251,3.19416,9.35559,1.01934,7.77306,-2.75181,35.1414,8,0,0,0
0,1405687564,677907,-6.87588,20.2338,-26.3169,33.9008,-8.78013,-0.422866,3.16002,9.34105,2.25568,7.19154,-0.020599,35.1098,7,0,0,0
0,1405687565,678920,-6.58708,20.1667,-26.6685,34.0778,-8.7855,-0.439487,3.13646,9.33893,1.76893,6.63193,-1.25498,35.0377,7,0,0,0
0,1405687566,679925,-6.80186,20.0586,-26.4701,33.901,-8.76312,-0.441106,3.17265,9.33019,1.46705,6.9694,-1.24211,35.0931,7,0,0,0
0,1405687567,680926,-6.65094,20.2624,-26.4365,33.966,-8.76892,-0.423997,3.1566,9.3294,2.02681,7.66768,-2.08984,35.1336,8,0,0,0
0,1405687568,681927,-6.55476,19.8068,-26.3339,33.5968,-8.77317,-0.408597,3.17068,9.33749,1.99776,6.81552,-1.88277,35.146,7,0,0,0
0,1405687569,682929,-6.77026,20.1125,-26.229,33.7388,-8.79893,-0.4262,3.16028,9.35896,0.885315,6.91876,-1.10362,35.1475,8,0,0,0
0,1405687570,683930,-7.20046,20.5285,-26.243,34.0876,-8.793,-0.439826,3.16436,9.3554,0.881056,6.65876,-1.99354,35.1778,8,0,0,0
0,1405687571,684935,-6.84979,20.2914,-26.2269,33.8602,-8.77596,-0.422264,3.16609,9.33916,1.04883,7.76801,-1.45447,35.0714,7,0,0,0
0,1405687572,685939,-7.10407,20.1611,-26.6801,34.1872,-8.79019,-0.444246,3.15107,9.34847,2.43403,7.08966,-2.11583,35.2363,8,0,0,0
0,1405687573,686946,-6.96937,19.7975,-26.2253,33.5899,-8.76094,-0.426106,3.14831,9.3192,1.4124,7.18132,-1.31476,35.2378,7,0,0,0
0,1405687574,687954,-7.10364,20.2316,-25.8709,33.6018,-8.76909,-0.459425,3.19767,9.34522,1.13082,5.73286,-2.38584,35.1587,9,0,0,0
0,1405687575,688960,-6.8149,20.3102,-26.4788,34.0598,-8.79759,-0.426969,3.16518,9.35939,1.80736,7.53642,-2.19509,35.2288,8,0,0,0
0,1405687576,689967,-7.07096,19.9836,-26.4442,33.8916,-8.78671,-0.431593,3.1749,9.35268,1.17858,7.71958,-2.43835,35.1654,8,0,0,0
0,1405687577,690970,-6.70124,20.0712,-26.676,34.0495,-8.77378,-0.428967,3.1494,9.33177,1.69974,7.62727,-2.60434,35.2031,7,0,0,0
0,1405687578,691974,-7.04492,19.964,-26.1064,33.6116,-8.77107,-0.383989,3.18939,9.34084,1.66655,7.89167,-1.60029,35.2221,8,0,0,0
0,1405687579,692982,-6.94872,20.4409,-26.1787,33.9329,-8.78719,-0.441299,3.15785,9.3478,1.44615,6.56443,-1.19951,35.2134,8,0,0,0
0,1405687580,693983,-6.84816,19.8496,-26.1819,33.5618,-8.77382,-0.419959,3.15546,9.33344,1.78342,7.27484,-1.34217,35.2345,7,0,0,0
0,1405687581,694988,-6.79261,19.9214,-26.1706,33.5843,-8.78766,-0.428591,3.16316,9.34945,1.78229,6.84327,-2.11883,35.1967,8,0,0,0
0,1405687582,695991,-6.96522,20.4026,-26.4742,34.1419,-8.77496,-0.423567,3.16977,9.33953,1.19614,5.45664,-2.73984,35.3233,8,0,0,0
0,1405687583,696996,-6.54477,19.8286,-26.2611,33.5508,-8.78016,-0.440336,3.1088,9.32468,1.89944,6.40615,-1.67764,35.261,7,0,0,0
0,1405687585,698003,-7.08278,20.5593,-26.1041,33.9746,-8.81072,-0.396652,3.15578,9.36723,1.23629,7.50979,-2.28316,35.2366,8,0,0,0
0,1405687586,699011,-7.19373,20.1672,-26.2166,33.8493,-8.77572,-0.429555,3.14979,9.33376,1.61228,7.01253,-1.05031,35.3098,8,0,0,0
0,1405687587,700021,-6.77307,20.0514,-26.2326,33.7058,-8.78327,-0.406986,3.16184,9.34391,1.24143,8.52611,-1.2177,35.298,7,0,0,0
0,1405687588,701028,-6.8146,20.2296,-26.597,34.1039,-8.77714,-0.384727,3.14225,9.33059,1.68683,6.22379,-0.511016,35.2071,7,0,0,0
0,1405687589,702035,-7.16038,20.0454,-26.5765,34.0499,-8.78764,-0.439779,3.15935,9.34866,2.33084,6.69822,-2.60284,35.3446,7,0,0,0
0,1405687590,703038,-6.88831,20.1778,-26.2736,33.8363,-8.76151,-0.436219,3.1615,9.32467,2.47379,6.84893,-2.09612,35.3612,7,0,0,0
0,1405687591,704047,-6.83953,20.3937,-26.2115,33.9076,-8.77378,-0.428713,3.14839,9.33142,2.10484,8.05175,-1.18388,35.2546,7,0,0,0
0,1405687592,705050,-7.087,20.324,-26.2447,33.9422,-8.77497,-0.460164,3.12843,9.32733,0.936674,6.92525,-0.941077,35.4285,7,0,0,0
0,1405687593,706052,-7.17478,20.2563,-26.1825,33.8721,-8.77073,-0.439106,3.11834,9.31894,0.739758,7.1465,-1.95217,35.2768,7,0,0,0
0,1405687594,707055,-6.64807,19.6874,-26.4772,33.6575,-8.77763,-0.412992,3.17704,9.34404,0.984667,7.76454,-1.68821,35.3206,8,0,0,0
0,1405687595,708058,-6.82296,19.7405,-26.4957,33.7382,-8.78331,-0.435961,3.1695,9.34786,1.36076,7.03071,-1.90787,35.3824,8,0,0,0
0,1405687596,709067,-6.32425,20.1085,-26.3688,33.7588,-8.78204,-0.406205,3.14996,9.33871,1.39993,6.79263,-2.5175,35.3924,7,0,0,0
0,1405687597,710073,-6.52008,19.899,-26.2235,33.5582,-8.77106,-0.421589,3.16625,9.33457,2.35829,6.89786,-2.33564,35.4145,8,0,0,0
0,1405687598,711079,-7.06808,20.2575,-26.5965,34.1716,-8.7802,-0.418065,3.18715,9.35011,1.56844,7.69936,-2.82388,35.2845,8,0,0,0
0,1405687599,712087,-6.76613,20.0397,-26.5197,33.9215,-8.7748,-0.402432,3.11663,9.32053,0.275398,7.66955,-1.78991,35.4047,7,0,0,0
0,1405687600,713091,-6.85219,19.8757,-26.3605,33.7176,-8.81109,-0.426884,3.20926,9.38706,0.964118,7.30893,-2.09488,35.3826,8,0,0,0
0,1405687601,714096,-6.85586,19.8553,-26.5786,33.8771,-8.80164,-0.422868,3.2013,9.37529,0.92555,6.75203,-2.24207,35.4261,8,0,0,0
0,1405687602,715097,-6.80186,19.7401,-26.1661,33.4754,-8.76832,-0.445131,3.13194,9.32151,0.689024,5.98719,-1.78049,35.4488,8,0,0,0
0,1405687603,716105,-6.91669,20.1223,-26.2452,33.787,-8.79527,-0.393996,3.15867,9.35357,0.636311,7.39888,-2.12754,35.4899,7,0,0,0
0,1405687604,717109,-6.93921,20.2994,-26.8135,34.3392,-8.76093,-0.419984,3.16308,9.32391,-0.428415,6.79698,-0.932814,35.5221,8,0,0,0
0,1405687605,718112,-6.73847,19.9406,-26.4523,33.8047,-8.76628,-0.457653,3.14285,9.32387,0.344901,7.33914,-0.905044,35.4837,8,0,0,0
0,1405687606,719119,-7.20703,20.1872,-26.1833,33.8383,-8.77305,-0.414974,3.16085,9.33432,0.732364,7.3099,-2.60938,35.5149,7,0,0,0
0,1405687607,720120,-6.66573,20.1424,-26.4118,33.8781,-8.77979,-0.432336,3.16968,9.34444,2.33614,6.95993,-1.52658,35.4815,8,0,0,0
0,1405687608,721121,-6.9045,20.1166,-26.2888,33.815,-8.78516,-0.465872,3.12879,9.33732,1.41155,6.82928,-2.52687,35.4848,7,0,0,0
0,1405687609,722126,-6.79918,19.9203,-26.5472,33.8792,-8.77438,-0.453824,3.13915,9.33005,2.10721,6.7476,-1.82979,35.4838,9,0,0,0
0,1405687610,723130,-7.23231,20.3429,-26.7622,34.3854,-8.76606,-0.420177,3.1355,9.31943,2.26804,7.61214,-1.84669,35.4429,7,0,0,0
0,1405687611,724140,-7.09039,19.8336,-26.5446,33.886,-8.78048,-0.433327,3.16905,9.34492,1.19667,6.57648,-1.80756,35.4819,8,0,0,0
0,1405687612,725142,-7.01236,20.1623,-26.0586,33.686,-8.78215,-0.418849,3.15639,9.34154,2.33116,7.42863,-1.17789,35.5172,7,0,0,0
0,1405687613,726146,-6.81877,19.9458,-26.3221,33.7221,-8.77832,-0.427533,3.14682,9.33511,2.99079,6.77975,-2.09584,35.5252,7,0,0,0
0,1405687614,727148,-6.6971,20.1306,-26.2351,33.7398,-8.7405,-0.423754,3.12872,9.29326,2.29537,7.35561,-1.43964,35.4868,8,0,0,0
0,1405687615,728153,-7.16275,20.4499,-26.2583,34.0441,-8.78322,-0.44107,3.19353,9.35618,2.37756,6.69752,-0.683407,35.5226,7,0,0,0
0,1405687616,729165,-6.98173,19.8337,-26.2362,33.6223,-8.78271,-0.436061,3.15034,9.34081,2.46812,7.64876,-1.66384,35.466,7,0,0,0
0,1405687617,730171,-6.71779,19.9072,-26.1641,33.5558,-8.79365,-0.437673,3.16011,9.35447,2.26571,6.82184,-2.10033,35.471,8,0,0,0
0,1405687618,731178,-6.83025,20.2655,-26.0755,33.7235,-8.77766,-0.434719,3.13234,9.32994,2.17973,6.12818,-1.68652,35.5391,8,0,0,0
0,1405687619,732186,-6.59554,19.95,-26.4435,33.7751,-8.78758,-0.414556,3.16962,9.35093,0.315978,7.7773,-1.66574,35.5371,8,0,0,0
0,1405687620,733191,-7.34673,20.3873,-26.0619,33.8945,-8.74898,-0.421191,3.13803,9.30426,1.72824,7.80626,-2.70238,35.5169,8,0,0,0
0,1405687621,734207,-6.69094,19.6593,-26.2621,33.4807,-8.78042,-0.450579,3.20158,9.35676,0.473286,7.69688,-0.876063,35.5159,8,0,0,0
0,1405687622,735210,-6.85406,19.7298,-26.1952,33.5027,-8.79001,-0.387986,3.13391,9.34003,0.825593,6.88832,-2.04887,35.6129,6,0,0,0
0,1405687623,736212,-6.94862,20.0092,-26.4704,33.9018,-8.77572,-0.435943,3.13167,9.32796,1.49348,7.80026,-1.25569,35.6214,7,0,0,0
0,1405687624,737222,-7.03023,20.0507,-26.2613,33.7803,-8.77635,-0.451034,3.16504,9.34052,2.41389,6.5987,-1.69123,35.5478,8,0,0,0
0,1405687625,738227,-6.83867,19.9333,-26.1235,33.564,-8.75152,-0.438268,3.14696,9.31045,1.78002,7.45028,-2.14228,35.5505,7,0,0,0
0,1405687626,739269,-6.98101,20.512,-26.2319,34.0233,-8.75686,-0.431563,3.09699,9.2984,0.846829,5.58173,-1.63223,35.5742,1,0,0,0
0,1405687627,740272,-7.02119,20.3998,-26.0679,33.8376,-8.76951,-0.42082,3.16423,9.33241,2.287,6.82598,-2.11812,35.4759,8,0,0,0
0,1405687628,741277,-7.0191,19.9501,-26.2944,33.7442,-8.76833,-0.411416,3.13527,9.32109,1.86486,6.13658,-1.6951,35.6751,8,0,0,0
0,1405687629,742278,-6.80621,19.7079,-26.6093,33.8051,-8.78932,-0.414845,3.17983,9.35604,1.534,6.12152,-1.90077,35.5693,8,0,0,0
0,1405687630,743279,-6.60541,19.9191,-26.4265,33.7455,-8.78193,-0.408352,3.12629,9.33074,1.23396,7.06665,-2.37916,35.5845,6,0,0,0
0,1405687631,744281,-7.12506,20.4069,-26.2797,34.0269,-8.79157,-0.423979,3.12659,9.34061,1.92298,6.73999,-0.81275,35.5756,8,0,0,0
0,1405687632,745282,-7.03889,20.3095,-26.0402,33.7656,-8.78343,-0.435135,3.11245,9.32873,0.866028,7.65702,-1.15792,35.6277,8,0,0,0
0,1405687633,746285,-6.756,20.0088,-25.8556,33.3842,-8.77972,-0.438257,3.14963,9.33786,1.52971,5.6499,-2.18824,35.65,8,0,0,0
0,1405687634,747288,-7.13484,20.2724,-26.3788,34.0253,-8.78647,-0.423201,3.11302,9.33124,1.71826,8.01731,-1.67282,35.6608,7,0,0,0
0,1405687635,748292,-6.82106,19.9227,-26.413,33.78,-8.79218,-0.433636,3.1509,9.34979,2.26372,7.27482,-1.83889,35.6246,7,0,0,0
0,1405687636,749295,-6.97599,20.1935,-26.3227,33.9017,-8.80416,-0.431398,3.14517,9.35903,2.29641,6.41498,-1.05791,35.6124,7,0,0,0
0,1405687637,750302,-6.6627,19.9478,-26.2419,33.6295,-8.80875,-0.423868,3.18057,9.37495,1.33655,6.33801,-0.94309,35.7208,7,0,0,0
0,1405687638,751304,-6.9842,20.4575,-26.5026,34.2005,-8.78348,-0.443188,3.18758,9.3545,2.48535,6.77371,-2.3331,35.6449,7,0,0,0
0,1405687639,752312,-7.13108,20.374,-26.7822,34.3982,-8.77141,-0.438647,3.15871,9.33313,1.0463,7.63983,-2.27324,35.6661,7,0,0,0
0,1405687640,753319,-6.50401,19.7681,-26.2062,33.4641,-8.77415,-0.442903,3.14839,9.33243,1.78187,7.90652,-1.96442,35.6125,6,0,0,0
0,1405687641,754323,-6.53165,19.9935,-26.2409,33.6301,-8.78348,-0.416616,3.13299,9.33482,0.737336,7.26081,-3.13086,35.6933,7,0,0,0
0,1405687642,755327,-7.36216,20.3308,-26.74,34.3885,-8.76546,-0.423405,3.1876,9.33667,0.945225,6.55813,-1.59084,35.7133,7,0,0,0
0,1405687643,756335,-6.76226,19.7802,-26.934,34.0943,-8.78338,-0.415924,3.14722,9.33947,1.23484,6.79158,-3.06192,35.8194,8,0,0,0
0,1405687644,757341,-6.92944,20.1511,-26.6501,34.122,-8.75977,-0.422601,3.15999,9.3219,2.27637,7.07636,-1.9321,35.6987,8,0,0,0
0,1405687645,758342,-6.97372,20.2212,-26.558,34.1007,-8.77089,-0.412944,3.15278,9.32947,2.19766,6.7152,-1.54706,35.7063,8,0,0,0
0,1405687646,759347,-6.77744,20.1896,-26.373,33.8983,-8.79998,-0.394025,3.13003,9.34837,2.40928,7.66784,-2.88557,35.6755,8,0,0,0
0,1405687647,760355,-7.32809,20.3021,-26.1897,33.9378,-8.77176,-0.425209,3.15813,9.33265,1.51282,7.27871,-1.368,35.8059,8,0,0,0
0,1405687648,761363,-6.9814,20.437,-26.3455,34.0661,-8.79598,-0.423339,3.18073,9.36298,1.43008,6.51556,-3.10871,35.7443,8,0,0,0
0,1405687649,762366,-6.73316,19.861,-26.3821,33.7018,-8.79201,-0.418412,3.14798,9.34796,1.10486,7.40834,-0.575606,35.832,7,0,0,0
0,1405687650,763373,-6.84301,20.0756,-26.3581,33.832,-8.78556,-0.43371,3.14246,9.34073,0.762358,6.75728,-1.90397,35.7367,7,0,0,0
0,1405687651,764380,-6.80445,20.0478,-26.3999,33.8404,-8.77436,-0.428758,3.15674,9.33478,2.07907,7.85406,-1.71672,35.76,8,0,0,0
0,1405687652,765390,-7.06403,20.0801,-26.4387,33.9429,-8.79132,-0.422542,3.14712,9.3472,0.118357,6.91334,-0.711949,35.7343,7,0,0,0
0,1405687653,766395,-7.01696,20.1706,-26.441,33.9885,-8.77139,-0.424145,3.15978,9.33281,1.6165,6.55746,-2.4183,35.7988,8,0,0,0
0,1405687654,767396,-7.01336,20.3225,-26.505,34.1278,-8.7718,-0.437707,3.15884,9.3335,1.72682,7.15407,-1.71677,35.8102,7,0,0,0
0,1405687655,768398,-7.12264,20.4223,-26.6068,34.2888,-8.77766,-0.421417,3.11507,9.32355,1.56938,7.20262,-1.79526,35.7387,8,0,0,0
0,1405687656,769404,-7.16856,20.4737,-26.3931,34.1637,-8.78791,-0.430764,3.13851,9.34148,1.98359,6.86431,-1.94029,35.7474,6,0,0,0
0,1405687657,770412,-6.89762,19.8932,-26.6047,33.9283,-8.76089,-0.425928,3.13576,9.31491,0.830238,6.7442,-2.3646,35.8835,8,0,0,0
0,1405687658,771418,-6.69469,19.858,-26.4294,33.7294,-8.79163,-0.429011,3.14414,9.34679,0.891864,6.44896,-1.14943,35.8055,9,0,0,0
0,1405687659,772422,-6.8043,19.8068,-26.6137,33.8658,-8.78491,-0.42982,3.16181,9.34646,1.27878,7.6391,-1.92365,35.737,7,0,0,0
0,1405687660,773429,-7.14223,20.0968,-26.352,33.9016,-8.78084,-0.429258,3.16337,9.34314,1.57039,7.84039,-0.813938,35.8319,8,0,0,0
0,1405687661,774431,-6.97337,19.9958,-26.2383,33.718,-8.79936,-0.439246,3.14385,9.35443,0.925871,7.14425,-1.73696,35.831,7,0,0,0
0,1405687662,775439,-6.91475,19.8778,-26.5567,33.8851,-8.76839,-0.400867,3.16023,9.32911,2.95963,5.17837,-1.80534,35.8609,7,0,0,0
0,1405687663,776447,-6.88617,19.8399,-26.2213,33.5946,-8.77585,-0.42,3.14582,9.3321,1.75079,7.21172,-2.2169,35.8527,7,0,0,0
0,1405687664,777453,-6.83459,20.1531,-26.1952,33.7498,-8.77649,-0.440331,3.15489,9.3367,0.904581,7.71048,-2.93671,35.8971,7,0,0,0
0,1405687665,778459,-6.89882,20.004,-26.496,33.9086,-8.78662,-0.445105,3.11604,9.33341,0.779305,6.89995,-1.77768,35.7908,7,0,0,0
0,1405687666,779464,-6.74118,19.9754,-26.4466,33.8213,-8.77146,-0.425092,3.15534,9.33142,1.44808,6.59364,-2.37211,35.8686,8,0,0,0
0,1405687667,780470,-6.93467,19.8362,-26.2644,33.636,-8.77479,-0.402124,3.14114,9.32875,1.79788,5.92679,-1.53464,35.8816,8,0,0,0
0,1405687668,781474,-6.90069,20.018,-26.4053,33.8464,-8.7765,-0.432534,3.14907,9.33438,0.460347,7.60856,-1.52379,35.8581,7,0,0,0
0,1405687669,782482,-7.11124,20.5258,-26.6616,34.3907,-8.76185,-0.450958,3.15103,9.32215,2.28302,7.00482,-2.48358,35.7918,8,0,0,0
0,1405687670,783484,-6.63414,19.7326,-26.1669,33.4379,-8.79241,-0.431949,3.14463,9.34782,2.1752,7.79992,-1.19116,35.8707,7,0,0,0
0,1405687671,784488,-6.93149,20.0082,-26.2535,33.7286,-8.77743,-0.433036,3.1503,9.33569,3.77733,6.93958,-1.49819,35.979,7,0,0,0
0,1405687672,785490,-7.16931,20.3847,-26.3601,34.085,-8.75292,-0.426234,3.13256,9.30636,1.56011,7.0256,-1.22307,35.9505,8,0,0,0
0,1405687673,786498,-6.80999,19.8769,-25.901,33.3516,-8.78054,-0.410972,3.15755,9.34007,2.46007,6.90136,-1.31002,35.9961,7,0,0,0
0,1405687674,787499,-6.81134,19.8439,-26.2536,33.6069,-8.75403,-0.439276,3.14238,9.31131,1.55922,7.54682,-1.93841,35.8926,7,0,0,0
0,1405687675,788501,-6.62478,20.0056,-26.3463,33.7378,-8.76487,-0.414285,3.15344,9.3241,2.28557,7.44151,-2.60257,36.1236,7,0,0,0
0,1405687676,789511,-6.79762,20.3697,-26.2625,33.9242,-8.77784,-0.430608,3.16372,9.3405,1.29032,7.47903,-0.556548,36.0279,6,0,0,0
0,1405687677,790517,-6.79954,20.1149,-26.3038,33.8043,-8.79309,-0.411777,3.14234,9.34678,2.39165,7.38973,-2.03111,35.9111,8,0,0,0
0,1405687678,791520,-6.65726,19.8579,-26.2987,33.6196,-8.78964,-0.43698,3.14652,9.34609,2.08344,6.7437,-2.48338,36.0938,7,0,0,0
0,1405687679,792528,-6.67583,19.8886,-26.0494,33.4469,-8.75741,-0.452189,3.173,9.32549,1.34555,8.423,-0.246324,35.9187,8,0,0,0
0,1405687680,793529,-7.03351,20.5034,-26.7374,34.4202,-8.7765,-0.427244,3.13762,9.33028,1.38227,6.49257,-1.88656,35.929,7,0,0,0
0,1405687681,794531,-6.84876,20.1284,-26.4792,33.9588,-8.76558,-0.438309,3.12722,9.31703,1.91659,6.94251,-2.65824,35.9917,7,0,0,0
0,1405687682,795539,-7.03072,19.9884,-26.2535,33.7374,-8.78013,-0.419969,3.20425,9.35598,1.77107,7.71106,-2.64049,35.982,7,0,0,0
0,1405687683,796544,-6.8227,19.9375,-26.5416,33.8897,-8.79575,-0.420163,3.17066,9.35921,2.9416,7.3573,-2.92283,36.0677,7,0,0,0
0,1405687684,797549,-6.7841,19.9331,-26.5207,33.863,-8.76544,-0.419938,3.16913,9.3302,1.99376,7.49889,-2.15233,36.0851,7,0,0,0
0,1405687685,798556,-6.86959,20.1446,-26.2751,33.8138,-8.79906,-0.411393,3.15466,9.35652,1.62283,7.66727,-1.86635,36.0035,8,0,0,0
0,1405687686,799561,-6.83485,20.1024,-25.9839,33.5557,-8.7825,-0.41498,3.14303,9.3372,1.74385,7.3069,-1.59679,36.0582,6,0,0,0
0,1405687687,800567,-6.55687,19.8381,-26.1091,33.4399,-8.78075,-0.43303,3.15709,9.34111,1.04886,7.29958,-2.47966,36.0728,8,0,0,0
0,1405687688,801571,-7.34659,20.5081,-26.6657,34.4327,-8.78195,-0.415726,3.1646,9.34399,0.0664829,7.61183,-1.10363,36.0859,7,0,0,0
0,1405687689,802580,-6.52412,19.5967,-26.3527,33.4823,-8.78357,-0.441187,3.16131,9.34557,2.92304,6.8445,-2.14694,35.9996,7,0,0,0
0,1405687690,803583,-6.85778,20.0195,-26.3417,33.789,-8.77537,-0.43643,3.13665,9.32932,2.2166,7.75342,-3.07085,36.061,8,0,0,0
0,1405687691,804588,-6.68864,20.1434,-26.4618,33.9223,-8.79048,-0.443075,3.16665,9.35396,1.87234,8.06306,-2.57388,35.9819,7,0,0,0
0,1405687692,805591,-6.62503,19.5894,-26.4715,33.5913,-8.7709,-0.421513,3.15419,9.33034,0.996938,8.12175,-2.14615,36.1623,8,0,0,0
0,1405687693,806595,-6.7225,19.9866,-25.9912,33.4694,-8.79371,-0.408924,3.13514,9.34482,1.82438,7.48785,-2.3907,36.1012,7,0,0,0
0,1405687694,807603,-6.92656,20.1895,-26.6019,34.1065,-8.79247,-0.427465,3.1955,9.3649,2.14452,6.96918,-2.21981,36.0006,8,0,0,0
0,1405687695,808610,-6.96385,20.2743,-26.5051,34.089,-8.78208,-0.439287,3.1147,9.32841,1.06498,7.05897,-2.38783,36.0908,7,0,0,0
0,1405687696,809616,-6.832,20.0666,-26.13,33.647,-8.78998,-0.416084,3.12359,9.33776,1.32396,7.43041,-1.82434,36.1309,7,0,0,0
0,1405687697,810617,-7.19947,20.1495,-26.4201,33.9979,-8.76292,-0.445933,3.15426,9.324,1.8736,7.46519,-2.41136,36.0337,6,0,0,0
0,1405687698,811628,-6.95554,20.3581,-26.4383,34.0854,-8.7718,-0.428178,3.15716,9.33249,0.619335,6.40752,-1.83162,36.2251,8,0,0,0
0,1405687699,812631,-6.99173,20.4595,-26.6551,34.3215,-8.76729,-0.440911,3.1615,9.33032,1.99717,6.86031,-1.205,36.152,8,0,0,0
0,1405687700,813638,-6.80972,20.4547,-26.5549,34.2042,-8.77529,-0.447922,3.14335,9.33204,1.52992,6.36336,-1.40548,36.1484,7,0,0,0
0,1405687701,814643,-6.71519,19.9419,-26.4243,33.7789,-8.78088,-0.421152,3.14157,9.33546,1.21399,7.98266,-1.27222,36.2724,8,0,0,0
0,1405687702,815646,-6.54183,19.8286,-26.2915,33.574,-8.78488,-0.445376,3.14139,9.34028,2.85427,6.83029,-1.39668,36.224,7,0,0,0
0,1405687703,816655,-6.88199,20.1964,-25.8932,33.5517,-8.75738,-0.426431,3.15048,9.3166,1.68995,5.76006,-1.35563,36.185,8,0,0,0
0,1405687704,817658,-6.69987,19.8144,-25.9924,33.3632,-8.78701,-0.436785,3.16672,9.35043,2.92988,5.53246,-1.0936,36.1969,7,0,0,0
0,1405687705,818669,-6.66996,20.2294,-26.1335,33.7147,-8.78635,-0.427026,3.1545,9.34522,2.06111,6.28382,-1.45858,36.1545,8,0,0,0
0,1405687706,819671,-6.96383,20.1042,-26.288,33.8191,-8.76497,-0.432035,3.16967,9.33049,1.38932,6.38494,-2.05711,36.2037,8,0,0,0
0,1405687707,820675,-6.84207,20.3263,-26.8999,34.4032,-8.77906,-0.44511,3.19228,9.35204,1.66662,6.97515,-1.84222,36.0869,8,0,0,0
0,1405687708,821676,-6.85748,19.8995,-26.2647,33.6578,-8.78578,-0.418698,3.12765,9.33528,1.39482,6.8206,-2.35228,36.2656,7,0,0,0
0,1405687709,822681,-6.85047,20.0523,-26.2959,33.7712,-8.76724,-0.408843,3.14148,9.32205,2.33412,7.6751,-2.78936,36.218,8,0,0,0
0,1405687710,823686,-6.71693,19.5689,-26.2331,33.4101,-8.77987,-0.401482,3.16355,9.34106,2.02411,6.92174,-3.22607,36.1787,8,0,0,0
0,1405687711,824690,-6.50401,19.5653,-26.2342,33.3667,-8.76902,-0.431748,3.15943,9.33082,2.04821,6.6758,-2.566,36.1432,8,0,0,0
0,1405687712,825691,-7.17172,20.375,-26.6365,34.294,-8.78112,-0.412865,3.13629,9.33354,2.84552,6.54873,-1.74336,36.2133,8,0,0,0
0,1405687713,826696,-6.76588,19.6898,-26.1326,33.4122,-8.78649,-0.438813,3.12779,9.33692,0.902308,6.54881,-1.52945,36.1623,7,0,0,0
0,1405687714,827699,-7.01865,19.9121,-26.0006,33.493,-8.78066,-0.410817,3.12164,9.3281,1.25866,7.72731,-0.885433,36.2396,8,0,0,0
0,1405687715,828700,-6.78156,20.0706,-26.1102,33.6238,-8.78301,-0.427535,3.14164,9.33777,2.61839,7.35494,-0.445731,36.3066,7,0,0,0
0,1405687716,829713,-7.04168,20.4146,-26.7,34.3399,-8.77369,-0.431779,3.15389,9.33333,1.29571,7.78265,-2.02971,36.1803,8,0,0,0
0,1405687717,830718,-6.94834,19.9744,-26.4482,33.8639,-8.78402,-0.443318,3.16566,9.34757,2.17547,7.60003,-2.01264,36.2593,7,0,0,0
0,1405687718,831720,-6.92822,20.2561,-26.5033,34.0696,-8.79145,-0.428245,3.12777,9.34109,2.58477,7.79546,-1.69293,36.3361,8,0,0,0
0,1405687719,832722,-6.81167,20.005,-26.2286,33.6829,-8.77886,-0.433268,3.16729,9.3428,1.28781,7.6283,-2.25235,36.2948,7,0,0,0
0,1405687720,833726,-6.92441,20.0264,-26.224,33.715,-8.78823,-0.407672,3.15446,9.34611,1.7419,7.40251,-1.2804,36.2501,7,0,0,0
0,1405687721,834732,-6.67903,19.8707,-26.1707,33.5315,-8.77839,-0.416436,3.12583,9.32761,0.944027,6.84158,-2.20139,36.4206,8,0,0,0
0,1405687722,835735,-6.96879,20.3006,-26.2637,33.9184,-8.77343,-0.429887,3.15777,9.33432,-0.0379903,8.61396,-3.38024,36.3465,8,0,0,0
0,1405687723,836737,-6.88709,20.4278,-26.4415,34.1157,-8.78143,-0.427162,3.15408,9.34046,0.729744,6.54083,-1.0719,36.3768,7,0,0,0
0,1405687724,837745,-6.68544,20.2638,-26.4417,33.9776,-8.77534,-0.422277,3.1549,9.33479,1.04186,7.73497,-2.5558,36.4439,8,0,0,0
0,1405687725,838747,-7.04208,20.1659,-26.6143,34.1259,-8.77784,-0.440035,3.18285,9.34744,0.785151,7.72327,-1.43238,36.3405,7,0,0,0
0,1405687726,839751,-6.70614,20.1317,-26.2936,33.7878,-8.76862,-0.424032,3.16852,9.33317,1.12664,6.67563,-2.43503,36.4313,8,0,0,0
0,1405687727,840759,-7.39265,19.9966,-26.1672,33.7526,-8.76611,-0.433385,3.1339,9.31954,1.903,7.01415,-2.46823,36.379,6,0,0,0
0,1405687728,841773,-6.74247,19.9431,-26.254,33.6521,-8.79174,-0.440421,3.13911,9.34573,1.4073,8.24679,-2.65033,36.3304,8,0,0,0
0,1405687729,842776,-6.90907,20.1255,-26.3529,33.871,-8.78768,-0.420656,3.15983,9.34798,1.41486,7.29799,-1.92526,36.39,7,0,0,0
0,1405687730,843782,-6.77733,20.1774,-26.3266,33.8548,-8.80454,-0.40862,3.11865,9.34949,2.83693,7.26533,-1.48137,36.3958,7,0,0,0
0,1405687731,844784,-6.68307,19.9234,-26.0425,33.4636,-8.78695,-0.435688,3.14209,9.342,0.037415,7.36311,-1.51788,36.4319,7,0,0,0
0,1405687732,845790,-6.81667,19.6782,-26.4463,33.6617,-8.77104,-0.414896,3.14024,9.32547,2.02284,6.91738,-1.57928,36.4896,7,0,0,0
0,1405687733,846795,-6.886,20.0334,-26.3019,33.7719,-8.7791,-0.435415,3.14353,9.33509,0.0633785,7.30853,-1.22944,36.3386,7,0,0,0
0,1405687734,847800,-7.02217,20.5934,-26.4699,34.2645,-8.76597,-0.439432,3.16658,9.33073,0.890911,7.5354,-2.3009,36.4576,7,0,0,0
0,1405687735,848803,-6.84562,19.9467,-26.5737,33.9249,-8.77695,-0.436915,3.17246,9.34292,1.12902,7.03012,-3.64708,36.4221,8,0,0,0
0,1405687736,849804,-6.38183,19.7569,-26.8966,33.9778,-8.7693,-0.434963,3.11569,9.31651,1.09847,7.17909,-1.74103,36.4842,8,0,0,0
0,1405687737,850810,-6.9717,20.2222,-26.3729,33.9569,-8.78584,-0.440251,3.14005,9.34049,1.56957,7.6407,-1.41128,36.5187,8,0,0,0
0,1405687738,851813,-6.91519,20.3579,-26.2031,33.895,-8.77252,-0.43385,3.14743,9.33015,1.17814,6.3289,-1.93603,36.4982,8,0,0,0
0,1405687739,852814,-7.14702,20.2635,-26.368,34.0141,-8.78223,-0.442646,3.15246,9.34139,1.3292,7.01969,-1.16653,36.5085,8,0,0,0
0,1405687740,853816,-7.02337,20.1787,-26.6718,34.1745,-8.79003,-0.414732,3.16189,9.35063,2.50199,7.344,-1.90011,36.4234,8,0,0,0
0,1405687741,854817,-7.13703,20.2772,-26.2568,33.9341,-8.77944,-0.408577,3.16325,9.34086,1.73853,7.62637,-1.3864,36.5498,7,0,0,0
0,1405687742,855826,-6.91917,19.8699,-26.2993,33.68,-8.76953,-0.439176,3.16578,9.33379,0.554329,7.37637,-2.50189,36.5751,8,0,0,0
0,1405687743,856835,-7.08797,20.1627,-26.3988,33.9657,-8.77055,-0.420724,3.1378,9.32445,1.66969,6.9639,-1.2874,36.6056,7,0,0,0
0,1405687744,857843,-7.17989,19.7355,-26.2412,33.6101,-8.79193,-0.433383,3.16353,9.35381,1.07261,6.1031,-1.88172,36.5162,7,0,0,0
0,1405687745,858845,-7.06318,20.13,-25.8604,33.5241,-8.78901,-0.42854,3.12157,9.33673,0.767789,7.71757,-2.60278,36.5229,8,0,0,0
0,1405687746,859846,-7.10529,19.9108,-26.0077,33.516,-8.77076,-0.42344,3.15722,9.33133,1.59335,7.20616,-1.99168,36.594,8,0,0,0
0,1405687747,860853,-7.1956,20.2982,-26.0994,33.8374,-8.77691,-0.419661,3.13597,9.32976,2.34996,6.52076,-2.04989,36.5212,8,0,0,0
0,1405687748,861857,-6.94127,20.0437,-26.2195,33.7253,-8.77502,-0.458435,3.14837,9.33399,2.54227,6.05746,-1.22307,36.5888,7,0,0,0
0,1405687749,862858,-6.90442,19.7022,-26.035,33.3717,-8.78164,-0.444545,3.14134,9.33717,1.10204,7.774,-2.2499,36.5599,6,0,0,0
0,1405687750,863864,-6.92971,20.2828,-26.2272,33.8715,-8.76931,-0.441309,3.1564,9.3305,1.47812,6.9801,-2.23224,36.4951,8,0,0,0
0,1405687751,864868,-6.99498,19.9188,-26.3873,33.7932,-8.76026,-0.443038,3.17991,9.33007,1.83879,6.94795,-2.48337,36.5853,7,0,0,0
0,1405687752,865876,-6.86199,19.7638,-26.4369,33.7136,-8.78058,-0.432661,3.12,9.32846,1.99814,7.15992,-2.77531,36.607,9,0,0,0
0,1405687753,866878,-6.95563,19.5907,-26.2298,33.4691,-8.79143,-0.426074,3.18421,9.36002,1.51587,7.79743,-2.65754,36.5847,7,0,0,0
0,1405687754,867887,-7.23146,20.1179,-26.1008,33.7383,-8.76944,-0.445775,3.14298,9.32632,1.90609,6.66531,-2.33981,36.5112,8,0,0,0
0,1405687755,868890,-6.9613,20.3707,-26.2723,33.9656,-8.79232,-0.42903,3.15053,9.34959,1.53576,6.4398,-0.82951,36.5427,8,0,0,0
0,1405687756,869896,-6.76956,19.8796,-26.5079,33.8185,-8.77196,-0.43235,3.12313,9.32138,1.71885,6.80906,-1.98293,36.5793,6,0,0,0
0,1405687757,870901,-6.879,20.1389,-26.2081,33.7603,-8.76971,-0.433609,3.15899,9.3314,1.73106,6.78371,-1.6919,36.5671,8,0,0,0
0,1405687758,871904,-7.10209,20.3231,-26.2552,33.9529,-8.77056,-0.427449,3.1513,9.32932,0.689271,8.1726,-1.66412,36.6884,6,0,0,0
0,1405687759,872906,-6.99272,20.2483,-26.0122,33.6975,-8.789,-0.443903,3.14485,9.34524,2.59015,7.42035,-1.83273,36.6131,8,0,0,0
0,1405687760,873909,-7.29834,20.2951,-26.6103,34.2529,-8.77644,-0.435505,3.15158,9.33531,1.83057,6.87949,0.13845,36.6716,7,0,0,0
0,1405687761,874911,-6.70593,20.1269,-26.2743,33.7698,-8.79296,-0.437458,3.14456,9.34857,0.602047,7.57345,-1.71103,36.636,8,0,0,0
0,1405687762,875912,-6.55298,19.7977,-26.0396,33.3609,-8.80969,-0.406142,3.17766,9.37407,2.06153,7.69986,-0.682131,36.6621,7,0,0,0
0,1405687763,876918,-7.07719,20.2607,-26.3192,33.96,-8.77962,-0.433787,3.13843,9.33379,1.847,7.04029,-2.78538,36.6774,8,0,0,0
0,1405687764,877919,-6.57477,19.8524,-26.415,33.6912,-8.77416,-0.435565,3.1559,9.33463,2.27402,6.80906,-1.68027,36.6294,7,0,0,0
0,1405687765,878923,-6.79295,20.3172,-25.976,33.6702,-8.77444,-0.434503,3.14279,9.33042,1.87168,6.68136,-2.44303,36.6481,7,0,0,0
0,1405687766,879940,-6.60212,20.2257,-26.5712,34.0396,-8.77202,-0.429102,3.13797,9.32627,0.380376,6.90195,-1.63602,36.6484,6,0,0,0
0,1405687767,880945,-6.64138,19.8711,-26.2815,33.6107,-8.77109,-0.445297,3.13389,9.32479,1.08559,7.01293,-2.20198,36.6712,9,0,0,0
0,1405687768,881952,-6.83039,19.8818,-26.0754,33.4943,-8.79594,-0.413706,3.14109,9.34913,1.64802,7.09357,-2.0213,36.6894,7,0,0,0
0,1405687769,882958,-6.45425,19.6078,-26.4887,33.5824,-8.78612,-0.42515,3.15258,9.34428,1.20765,7.97038,-1.76086,36.7064,8,0,0,0
0,1405687770,883962,-7.17477,20.3306,-26.5186,34.1767,-8.78367,-0.421819,3.16706,9.34671,1.08251,8.45317,-1.47846,36.617,7,0,0,0
0,1405687771,884972,-6.75024,19.8869,-26.3403,33.6878,-8.77976,-0.422509,3.13368,9.33181,1.49672,7.84405,-1.36111,36.6572,7,0,0,0
0,1405687772,885980,-7.02773,20.2048,-26.5968,34.1323,-8.78244,-0.431322,3.14376,9.33812,2.21163,6.13724,-1.22883,36.6046,7,0,0,0
0,1405687773,886986,-6.85455,19.8316,-26.4039,33.7261,-8.78449,-0.414334,3.16588,9.34675,1.76883,8.0001,-1.27599,36.7829,6,0,0,0
0,1405687774,887987,-6.67811,20.0373,-26.2598,33.6997,-8.7777,-0.432958,3.14095,9.33279,0.793497,6.60909,-1.88723,36.7482,7,0,0,0
0,1405687775,888993,-7.06729,20.0195,-26.5272,33.9767,-8.78717,-0.42389,3.15074,9.34458,1.24531,8.01181,-2.16986,36.7391,6,0,0,0
0,1405687777,890002,-6.78271,20.0412,-26.1028,33.6007,-8.79571,-0.42499,3.20947,9.37261,1.99857,6.39542,-2.41763,36.7541,7,0,0,0
0,1405687778,891005,-6.92136,19.8776,-26.3548,33.7283,-8.78997,-0.44448,3.13035,9.34131,1.86516,6.00793,-2.4387,36.7498,7,0,0,0
0,1405687779,892018,-6.85371,19.8221,-26.5122,33.8051,-8.78528,-0.430496,3.1367,9.33838,1.15807,7.50303,-2.07349,36.7685,8,0,0,0
0,1405687780,893022,-6.749,20.1129,-26.2621,33.7605,-8.77877,-0.432765,3.15204,9.33753,1.69924,7.14978,-1.76551,36.7828,8,0,0,0
0,1405687781,894024,-7.02121,20.171,-26.4204,33.9736,-8.77068,-0.43363,3.12946,9.32236,0.800635,8.16594,-1.79147,36.7821,7,0,0,0
0,1405687782,895025,-6.78215,20.1609,-26.2118,33.7568,-8.77063,-0.421048,3.13163,9.32247,0.395186,8.20376,-2.70716,36.7037,8,0,0,0
0,1405687783,896032,-6.80728,20.1485,-26.4527,33.9418,-8.76145,-0.435152,3.17089,9.32775,0.580147,6.9089,-2.77564,36.7579,6,0,0,0
0,1405687784,897033,-6.6531,19.8344,-26.2911,33.5989,-8.77643,-0.427675,3.14499,9.33271,1.15951,6.67634,-0.571223,36.8035,7,0,0,0
0,1405687785,898038,-6.90937,20.2959,-26.0159,33.7119,-8.78778,-0.432513,3.17019,9.35212,1.95947,6.80202,-1.18486,36.6929,7,0,0,0
0,1405687786,899044,-6.56876,20.1253,-26.2534,33.7256,-8.79028,-0.405302,3.14453,9.34459,1.51132,8.11237,-1.23302,36.8562,8,0,0,0
0,1405687787,900048,-7.02357,20.2038,-26.4144,33.9889,-8.77874,-0.437442,3.14599,9.33568,1.89219,7.33149,-2.03532,36.8265,8,0,0,0
0,1405687788,901053,-7.00556,20.0391,-26.3388,33.8286,-8.7917,-0.434145,3.16107,9.3528,2.90838,7.21428,-1.28323,36.8038,8,0,0,0
0,1405687789,902058,-6.84022,20.3141,-26.319,33.9432,-8.76762,-0.406716,3.20434,9.34368,0.981615,6.04167,-2.65585,36.8663,7,0,0,0
0,1405687790,903059,-7.33329,19.9494,-26.3539,33.8568,-8.76623,-0.448005,3.18595,9.33798,2.92317,7.83807,-2.81309,36.8194,7,0,0,0
0,1405687791,904060,-7.19508,20.455,-26.4964,34.2379,-8.79648,-0.432766,3.16727,9.35932,0.870297,7.25987,-2.50482,36.7349,7,0,0,0
0,1405687792,905067,-7.05863,20.0211,-26.3943,33.8723,-8.77632,-0.41351,3.15595,9.33567,0.772091,8.41668,-2.60675,36.8007,8,0,0,0
0,1405687793,906071,-6.90448,19.949,-26.487,33.8703,-8.781,-0.427615,3.15423,9.34013,0.753926,7.04455,-2.67416,36.7601,7,0,0,0
0,1405687794,907074,-7.12124,20.3276,-26.27,33.9711,-8.80082,-0.40881,3.13603,9.3518,0.994454,6.82685,-2.13161,36.8972,7,0,0,0
0,1405687795,908081,-6.65235,19.8572,-26.0029,33.3874,-8.80072,-0.416958,3.13574,9.35197,1.71278,6.63643,-2.0274,36.7982,8,0,0,0
0,1405687796,909086,-7.16235,20.4872,-26.5188,34.2676,-8.78225,-0.441135,3.13816,9.33652,2.47481,7.83125,-2.73398,36.8001,8,0,0,0
0,1405687797,910088,-6.80835,19.9101,-26.5036,33.8409,-8.77375,-0.426626,3.13817,9.32785,1.99209,5.67943,-2.45421,36.8073,8,0,0,0
0,1405687798,911089,-6.95868,20.2355,-26.4612,34.0308,-8.78191,-0.43984,3.15167,9.34068,2.53976,7.27549,-1.74653,36.7839,8,0,0,0
0,1405687799,912097,-6.87063,19.8358,-26.7107,33.9724,-8.77852,-0.438052,3.14461,9.33503,1.07429,6.73228,-1.78091,36.939,7,0,0,0
0,1405687800,913105,-6.20667,19.4892,-26.0565,33.1254,-8.77579,-0.428219,3.15332,9.33495,1.28831,6.59012,-2.09813,36.8937,7,0,0,0
0,1405687801,914106,-7.22683,20.3792,-26.6751,34.338,-8.77493,-0.406337,3.1411,9.32904,1.12843,6.89931,-1.15424,36.827,7,0,0,0
0,1405687802,915111,-7.01974,20.1106,-26.4049,33.9253,-8.79086,-0.41849,3.16379,9.35222,1.15338,7.26962,-2.19791,36.8506,7,0,0,0
0,1405687803,916115,-7.082,20.3381,-26.3132,34.0026,-8.78525,-0.425141,3.13766,9.33844,1.23331,6.46054,-2.24536,36.7511,8,0,0,0
0,1405687804,917123,-6.93867,20.4211,-26.6292,34.2678,-8.77259,-0.416378,3.16085,9.33395,2.07828,7.428,-0.321493,36.9346,8,0,0,0
0,1405687805,918134,-6.83107,20.0687,-26.2145,33.7138,-8.77795,-0.43525,3.16808,9.34231,0.953536,8.24378,-0.544931,36.9207,8,0,0,0
0,1405687806,919142,-6.74874,20.1335,-26.5254,33.9779,-8.77523,-0.417722,3.16593,9.33822,1.8747,7.66924,-2.02106,36.8121,8,0,0,0
0,1405687807,920150,-6.75383,19.7025,-26.6352,33.8118,-8.7865,-0.420523,3.163,9.34794,0.588528,8.44193,-1.57446,36.9143,7,0,0,0
0,1405687808,921151,-6.86634,20.3475,-26.5278,34.1305,-8.7898,-0.43493,3.16922,9.3538,1.70349,7.25839,-2.44483,36.9274,8,0,0,0
0,1405687809,922157,-6.89309,20.3527,-26.169,33.861,-8.77972,-0.425669,3.19461,9.35255,2.58554,7.13703,-1.37012,36.923,7,0,0,0
0,1405687810,923158,-6.46989,19.9377,-26.2516,33.5934,-8.79636,-0.415117,3.17244,9.36016,0.779674,7.61803,-1.32068,36.8553,7,0,0,0
0,1405687811,924159,-6.90209,19.8604,-26.1546,33.558,-8.78253,-0.441793,3.13586,9.33605,0.609338,6.78991,-1.63907,36.887,7,0,0,0
0,1405687812,925163,-6.91071,20.2602,-26.4581,34.0332,-8.76545,-0.428792,3.11856,9.31356,1.00545,8.07559,-3.60449,36.9136,7,0,0,0
0,1405687813,926168,-6.94624,20.4379,-26.2099,33.9546,-8.76219,-0.433714,3.16263,9.32558,0.625839,8.53294,-1.96105,37.0012,8,0,0,0
0,1405687814,927173,-6.87564,19.8667,-26.4226,33.7656,-8.77829,-0.43746,3.14243,9.33405,2.20784,6.72971,-1.38676,36.9194,8,0,0,0
0,1405687815,928177,-6.60441,19.8906,-26.3117,33.6386,-8.78844,-0.424786,3.17183,9.35295,2.25643,6.91812,-1.26862,36.9561,8,0,0,0
0,1405687816,929179,-6.4551,19.7534,-26.3294,33.5425,-8.76479,-0.423753,3.17097,9.33039,2.66738,6.28284,-1.48996,36.9624,8,0,0,0
0,1405687817,930185,-7.05301,20.1016,-26.2302,33.7911,-8.79487,-0.439307,3.14433,9.35037,1.09884,6.94897,-2.15439,36.9001,6,0,0,0
0,1405687818,931192,-6.9738,19.7001,-26.2565,33.5578,-8.77582,-0.43775,3.15588,9.33628,1.90249,7.22919,-2.12265,36.9416,8,0,0,0
0,1405687819,932195,-6.73461,20.0371,-26.4065,33.8252,-8.768,-0.427627,3.14117,9.3235,0.91185,7.24315,-1.47219,36.9847,7,0,0,0
0,1405687820,933201,-6.63861,20.1385,-26.6646,34.0681,-8.77392,-0.431226,3.16318,9.33667,1.88764,7.05108,-1.95382,37.0429,7,0,0,0
0,1405687821,934208,-7.09171,20.4503,-26.4188,34.1535,-8.79025,-0.429721,3.12972,9.34068,1.40466,7.05113,-2.92934,36.9779,6,0,0,0
