0,1405715931,utime,,bx(uT),by(uT),bz(uT),,B(uT),ax,,,,ay,,az,,,,,A,,,,,gx,,,gy,,,,gz,,,T(C),rate,,track,tilt,roll
0,1405715931,mins,,-1000,-1000,-1000,,,,,0,,,,-2000,-2000,-2000,,0,,,-2000,,-2000,-2000,-2000,,0,,0,,-180,-180
0,1405715931,maxs,,,1000,,1000,,1000,,,,1000,,,2000,,2000,,2000,2000,,2000,,,2000,,2000,,2000,,37000,360,180,180
0,1405715931,attr,,,,,F,,,,,F,,,,,F,,,,,,F,,,,,,F,,,,,F,,,,F,,,,,F,,,,,F,,,,,,F,,,,,F,,,,,F,,,,,I,F,F,F
0,1405715931,1982,-0.672783,3.27217,-3.82263,5.07664,-1.4649,-0.0725853,0.521295,1.55659,0.672464,0.498551,0.0231884,4.83333,0,0,0,0
0,1405715934,4667,-3.70789,19.5591,-22.7566,30.2353,-8.76417,-0.415327,3.25078,9.35686,2.29531,5.5279,-1.13887,48.9655,2,0,0,0
0,1405715935,5674,-4.09412,19.1835,-23.1416,30.3365,-8.77563,-0.465445,3.18867,9.34858,1.9298,4.27469,-1.49689,48.8899,11,0,0,0
0,1405715936,6677,-3.80026,19.1669,-23.1377,30.2847,-8.79022,-0.462901,3.20529,9.36783,2.04681,4.22036,-1.32772,48.8534,10,0,0,0
0,1405715937,7681,-3.18554,19.6476,-24.0329,31.2051,-8.78815,-0.41563,3.23094,9.37247,2.41474,4.01452,-1.05271,48.7828,11,0,0,0
0,1405715938,8990,-3.62569,20.1699,-23.7844,31.3953,-8.79962,-0.455221,3.23531,9.38658,2.96017,4.00501,-1.58922,48.87,4,0,0,0
0,1405715939,9991,-6.07181,19.0924,-26.2546,33.0256,-8.77418,-0.441617,3.24711,9.36616,2.48829,4.55082,-2.06513,48.9138,3,0,0,0
0,1405715941,11006,-6.88504,19.8414,-25.3553,32.9238,-8.78548,-0.455264,3.22769,9.37069,3.37197,5.11624,-1.93642,48.969,8,0,0,0
0,1405715942,12011,-6.91948,19.4003,-25.6126,32.8672,-8.79944,-0.441815,3.19959,9.37351,4.954,5.04106,-1.97604,48.9908,8,0,0,0
0,1405715943,13014,-6.5745,20.0398,-25.0124,32.7175,-8.79818,-0.431078,3.21087,9.37569,3.17646,3.71362,-2.28613,48.9654,7,0,0,0
0,1405715944,14016,-6.64928,20.243,-25.244,33.0342,-8.78941,-0.479391,3.2452,9.38162,3.25416,3.95753,-1.07098,49.0221,7,0,0,0
0,1405715945,15018,-7.22101,19.4705,-25.6205,32.9796,-8.78339,-0.450129,3.25313,9.37729,2.04467,5.28881,-1.61803,48.9654,7,0,0,0
0,1405715946,16024,-7.25933,19.54,-25.7542,33.1329,-8.78887,-0.447162,3.21159,9.36796,2.65075,4.00029,-0.675226,48.994,7,0,0,0
0,1405715947,17027,-7.35016,18.9823,-25.7765,32.8448,-8.79143,-0.472685,3.25718,9.38733,1.99756,5.48908,-3.27239,48.9762,7,0,0,0
0,1405715948,18028,-7.65557,18.8331,-25.6394,32.7212,-8.78432,-0.441762,3.21483,9.36454,2.63165,5.82641,-1.03094,48.8908,8,0,0,0
0,1405715949,19032,-7.24921,19.4556,-25.5009,32.8842,-8.77797,-0.437717,3.20072,9.35355,1.29802,5.36474,-2.01281,48.9481,7,0,0,0
0,1405715950,20040,-7.70312,18.6219,-25.7986,32.7365,-8.76791,-0.462242,3.22249,9.35277,3.47095,3.72281,-2.29214,48.9086,7,0,0,0
0,1405715951,21042,-7.57181,19.0269,-25.8271,32.9605,-8.77941,-0.451038,3.2208,9.36242,3.9322,4.67206,-1.28884,48.9919,7,0,0,0
0,1405715952,22051,-7.72503,19.286,-25.4714,32.8697,-8.79091,-0.444402,3.22256,9.3735,1.86334,4.98387,-1.72887,48.8519,8,0,0,0
0,1405715953,23057,-7.29453,19.2206,-25.4931,32.7497,-8.77762,-0.449415,3.23304,9.36489,1.08304,3.80076,-1.94009,48.909,8,0,0,0
0,1405715954,24064,-7.74258,18.9716,-25.6015,32.7918,-8.79851,-0.449831,3.22683,9.38235,3.21021,3.91021,-0.66287,48.9556,6,0,0,0
0,1405715955,25068,-7.56367,18.9454,-25.8669,32.9429,-8.78099,-0.441547,3.24168,9.37066,1.84778,4.9971,-2.05044,49.0255,8,0,0,0
0,1405715956,26076,-7.62934,18.9506,-25.6288,32.7745,-8.78522,-0.46961,3.25235,9.37968,2.33025,3.48654,-1.40458,48.9486,7,0,0,0
0,1405715957,27081,-7.24177,19.5326,-25.6143,33.016,-8.7793,-0.443896,3.20882,9.35787,2.45568,3.49784,-0.516651,49.0125,7,0,0,0
0,1405715958,28089,-7.5416,18.8442,-25.7472,32.7856,-8.78521,-0.461929,3.22739,9.37067,2.34213,4.70895,-2.55099,48.9791,7,0,0,0
0,1405715959,29090,-6.87949,19.4178,-25.7974,33.0134,-8.77286,-0.467209,3.22318,9.3579,3.56743,4.4353,-0.670734,48.9054,7,0,0,0
0,1405715960,30096,-7.52156,19.3571,-25.7793,33.1035,-8.77328,-0.473301,3.19322,9.34832,1.63615,4.38363,-0.972686,48.9308,8,0,0,0
0,1405715961,31098,-7.16303,19.6183,-25.7145,33.1273,-8.77959,-0.444306,3.24012,9.36894,2.00174,4.63572,-0.860037,48.9646,8,0,0,0
0,1405715962,32102,-7.37955,19.355,-25.7194,33.0236,-8.77636,-0.442797,3.24684,9.36817,3.19397,4.52678,-1.51806,48.8052,7,0,0,0
0,1405715963,33103,-7.84469,19.2529,-25.6083,32.9848,-8.7751,-0.465153,3.21765,9.358,1.24066,4.6576,-1.32731,48.9457,7,0,0,0
0,1405715964,34109,-7.27471,19.4419,-25.493,32.8756,-8.78348,-0.452425,3.22086,9.36633,2.16052,4.84582,-2.04274,48.9108,8,0,0,0
0,1405715965,35117,-7.14591,19.7582,-25.7748,33.2535,-8.78336,-0.449471,3.25819,9.37898,3.28027,5.20729,-0.81042,48.9761,8,0,0,0
0,1405715966,36123,-7.27987,19.4139,-25.5346,32.8925,-8.78216,-0.435572,3.19979,9.35707,2.81413,5.22208,-1.87322,48.9081,8,0,0,0
0,1405715967,37127,-7.54135,19.0069,-25.5924,32.7583,-8.78888,-0.365495,3.26297,9.38216,3.39516,5.37459,-2.2423,48.9754,8,0,0,0
0,1405715968,38141,-7.52791,19.2012,-25.9332,33.1344,-8.76613,-0.492608,3.20378,9.34623,1.91849,4.67316,-1.71343,48.961,8,0,0,0
0,1405715969,39142,-7.53474,19.0018,-26.0706,33.1288,-8.79312,-0.402361,3.22881,9.37582,2.80598,4.96049,-0.789396,48.8788,8,0,0,0
0,1405715970,40145,-7.50557,18.6592,-25.8815,32.7773,-8.77567,-0.485034,3.22584,9.36235,1.2677,3.73984,-1.98067,48.9587,7,0,0,0
0,1405715971,41152,-7.9361,18.9587,-25.9754,33.123,-8.77592,-0.475656,3.22517,9.36188,3.41843,4.93278,-1.80591,48.9423,7,0,0,0
0,1405715972,42154,-7.62752,18.9131,-25.7763,32.8679,-8.7885,-0.426603,3.21365,9.36735,0.816146,5.1681,-0.949802,48.9756,8,0,0,0
0,1405715973,43158,-7.26672,19.1866,-25.7305,32.9088,-8.78453,-0.42066,3.22627,9.3677,1.9497,3.94173,-0.61054,48.9648,8,0,0,0
0,1405715974,44159,-7.22529,19.1984,-26.1152,33.2082,-8.79746,-0.42478,3.21982,9.37779,1.57029,5.63571,-1.28245,48.9832,7,0,0,0
0,1405715975,45161,-7.48866,19.2844,-26.0137,33.2367,-8.79581,-0.430924,3.2202,9.37666,3.41886,5.12162,-0.905694,48.9208,8,0,0,0
0,1405715976,46162,-7.28876,19.1041,-25.8762,32.9798,-8.79667,-0.422926,3.23149,9.38098,2.42464,4.41763,0.120144,49.0523,7,0,0,0
0,1405715977,47163,-7.5391,18.9582,-25.7515,32.8541,-8.77161,-0.4318,3.23924,9.36057,2.43602,4.62581,-1.48317,48.9526,7,0,0,0
0,1405715978,48169,-7.58945,18.8154,-25.685,32.7313,-8.80344,-0.44656,3.20875,9.38063,2.1195,3.98911,-1.44427,48.8742,7,0,0,0
0,1405715979,49180,-7.30932,18.8139,-25.8846,32.8238,-8.78522,-0.435357,3.22836,9.36973,2.60123,3.46765,-0.214007,48.8652,8,0,0,0
0,1405715980,50187,-7.60524,19.1705,-25.7635,33.0016,-8.8114,-0.453906,3.22685,9.39464,2.50497,5.0422,-1.83846,48.9856,8,0,0,0
0,1405715981,51188,-7.55878,18.822,-25.5971,32.6591,-8.77634,-0.469215,3.23042,9.36375,3.37891,3.8518,-1.04651,48.9681,7,0,0,0
0,1405715982,52190,-7.23802,19.1083,-25.6628,32.8039,-8.79231,-0.42523,3.23161,9.37704,0.831236,4.38663,-1.162,48.9196,7,0,0,0
0,1405715983,53197,-7.28182,18.9666,-25.7071,32.766,-8.78021,-0.459299,3.23632,9.36893,3.36644,4.91658,-1.862,48.9633,7,0,0,0
0,1405715984,54200,-7.09996,19.229,-25.6484,32.8329,-8.78809,-0.479899,3.19207,9.36216,2.22337,4.54269,-2.00629,48.8529,7,0,0,0
0,1405715985,55209,-7.0613,19.3214,-25.7453,32.9545,-8.78033,-0.460772,3.21369,9.36132,2.75576,4.93718,-0.633934,48.8687,7,0,0,0
0,1405715986,56213,-7.35672,19.231,-25.8051,33.0129,-8.79714,-0.442683,3.21545,9.37682,3.74192,5.64541,-1.38725,48.9149,6,0,0,0
0,1405715987,57226,-7.5768,19.392,-25.8969,33.2281,-8.79389,-0.445387,3.21787,9.37473,1.17004,4.91033,-1.31726,48.9212,7,0,0,0
0,1405715988,58232,-7.28229,19.1316,-25.6951,32.8525,-8.78048,-0.424414,3.18777,9.35087,4.30877,5.31666,-0.82081,48.9058,7,0,0,0
0,1405715989,59233,-7.61943,19.0915,-25.6161,32.844,-8.77939,-0.457171,3.23738,9.36842,2.23969,3.96607,-0.772808,48.8644,8,0,0,0
0,1405715990,60240,-7.34238,19.2013,-25.6955,32.9068,-8.78143,-0.458159,3.22237,9.36521,2.70597,4.98951,-2.33874,48.8303,7,0,0,0
0,1405715991,61244,-7.68436,18.7951,-25.8523,32.8731,-8.78887,-0.477784,3.21809,9.37169,3.00156,6.37545,-0.843615,48.8862,7,0,0,0
0,1405715992,62251,-7.61942,18.9963,-25.4221,32.6374,-8.78612,-0.476502,3.24315,9.37768,3.93095,4.65174,-0.487752,48.8542,8,0,0,0
0,1405715993,63258,-7.38478,19.2633,-25.582,32.864,-8.80698,-0.44369,3.21183,9.38486,2.96456,5.10122,-1.22863,48.9164,7,0,0,0
0,1405715994,64264,-8.02411,18.8145,-25.5431,32.7234,-8.78768,-0.476888,3.20365,9.36558,2.03448,4.21131,-1.96365,48.9463,7,0,0,0
0,1405715995,65268,-7.37337,19.2519,-25.5161,32.8036,-8.76956,-0.458561,3.21168,9.35042,2.26264,4.69088,-0.519919,48.8903,7,0,0,0
0,1405715996,66274,-7.41658,19.5142,-25.5837,33.0202,-8.79384,-0.372901,3.21342,9.36999,2.78503,4.52221,-1.48689,48.9475,8,0,0,0
0,1405715997,67278,-7.20755,19.4093,-25.5085,32.8535,-8.74794,-0.41097,3.20359,9.32514,1.82288,4.29368,-1.64747,48.9723,8,0,0,0
0,1405715998,68285,-7.31913,18.9153,-25.869,32.8719,-8.80889,-0.413127,3.20798,9.38394,2.07187,4.72057,-1.53276,48.8762,8,0,0,0
0,1405715999,69535,-7.41426,18.8209,-25.8235,32.8032,-8.80565,-0.430056,3.19461,9.37709,1.94685,4.38598,-0.975848,48.8842,8,0,0,0
0,1405716000,70543,-7.53004,19.2955,-25.6001,32.9299,-8.77766,-0.458895,3.18971,9.35051,3.18377,4.82436,-2.27348,48.9331,7,0,0,0
0,1405716001,71549,-7.51112,19.3544,-25.4645,32.855,-8.78632,-0.455483,3.21649,9.36764,3.06878,5.37776,-1.53175,48.9669,7,0,0,0
0,1405716002,72556,-7.48348,19.1422,-25.7564,32.9517,-8.7898,-0.458378,3.22544,9.37413,2.72329,5.22804,-1.48962,48.9547,8,0,0,0
0,1405716003,73946,-7.53922,19.1115,-25.69,32.8948,-8.78336,-0.455684,3.21541,9.3645,1.90927,3.79478,-0.520593,48.9491,1,0,0,0
0,1405716004,74947,-7.87872,18.9632,-25.6567,32.8625,-8.7939,-0.442063,3.25766,9.38831,2.9132,4.47936,-0.112895,48.9344,8,0,0,0
0,1405716005,75957,-7.74007,18.837,-25.5974,32.7104,-8.79044,-0.450179,3.2285,9.37537,1.97888,5.13398,-2.57014,48.9792,8,0,0,0
0,1405716006,76958,-7.43799,19.5714,-25.6111,33.0801,-8.78792,-0.453082,3.22064,9.37045,2.81972,3.57568,-1.91127,49.0179,7,0,0,0
0,1405716007,77966,-7.31767,19.0773,-25.7815,32.8964,-8.75972,-0.468861,3.20098,9.33803,2.35466,4.57231,0.872553,48.9353,8,0,0,0
0,1405716008,78973,-7.3011,19.4962,-25.7415,33.1064,-8.78855,-0.450984,3.20673,9.36617,2.06357,3.81592,-2.24344,48.9299,6,0,0,0
0,1405716009,79983,-7.42872,19.1839,-25.5014,32.7648,-8.79625,-0.459184,3.2219,9.379,2.65509,4.62268,-2.39455,48.9362,8,0,0,0
0,1405716010,80985,-7.50334,19.1435,-25.4874,32.7473,-8.7776,-0.448717,3.22241,9.36117,2.19539,5.87591,-1.67464,48.9009,7,0,0,0
0,1405716011,81990,-7.61624,19.3089,-25.677,33.0174,-8.78412,-0.457834,3.21252,9.36433,3.43339,5.4381,-1.01648,48.8491,7,0,0,0
0,1405716012,82999,-7.55954,18.8427,-25.6966,32.7492,-8.71893,-0.575992,3.16818,9.29456,2.05208,5.13274,-1.91264,48.9373,7,0,0,0
0,1405716014,84002,-7.53043,19.2236,-25.6111,32.8965,-8.74654,-0.40683,3.19486,9.32066,2.54591,4.42695,-1.57091,48.8756,7,0,0,0
0,1405716015,85004,-7.42607,19.4643,-25.7943,33.1565,-8.73249,-0.548994,3.23908,9.33003,2.39943,4.61246,-1.15474,48.9104,7,0,0,0
0,1405716016,86012,-7.57165,19.2984,-25.3831,32.7729,-8.79817,-0.477151,3.24389,9.38926,1.73223,4.31926,-1.31361,48.8873,7,0,0,0
0,1405716017,87014,-7.47575,19.5204,-25.6126,33.0596,-8.75211,-0.386077,3.22998,9.33709,3.64465,4.56902,-1.7315,48.8884,8,0,0,0
0,1405716018,88024,-7.15031,19.3475,-25.3152,32.6544,-8.8362,-0.63675,3.21157,9.42328,0.792588,4.04402,-0.0754429,48.8344,8,0,0,0
0,1405716019,89030,-7.80772,18.7851,-25.37,32.5189,-8.76644,-1.00803,3.181,9.38005,1.71493,5.64665,0.43475,48.8481,7,0,0,0
0,1405716020,90032,-7.60736,19.3756,-25.5,32.9171,-8.86037,-0.561309,3.1275,9.41289,2.11475,3.60165,-1.03305,48.7945,7,0,0,0
0,1405716021,91039,-7.81834,19.3441,-25.3292,32.8159,-8.78606,-0.894091,3.22466,9.40174,1.85335,4.16234,-2.77946,48.8955,7,0,0,0
0,1405716022,92042,-7.40874,19.0964,-25.1632,32.4461,-8.75002,-0.414621,3.11696,9.29786,1.80609,4.50488,-2.61037,48.9063,8,0,0,0
0,1405716023,93044,-7.61885,19.0832,-25.7588,32.9505,-8.75941,-0.296234,3.39073,9.39745,1.24338,5.07733,-1.32106,48.9098,7,0,0,0
0,1405716024,94876,-7.3225,19.4787,-25.5551,32.956,-8.80997,-0.478511,3.21562,9.39067,2.03992,4.47861,-0.881277,48.9552,7,0,0,0
0,1405716025,95878,-8.15382,19.3925,-24.5456,32.3271,-8.83056,-0.365394,3.06958,9.356,2.30835,3.91821,0.0914209,48.8684,8,0,0,0
0,1405716026,96885,-8.34494,19.3085,-24.3452,32.1736,-8.77512,-0.474893,3.32087,9.39449,3.16601,5.47846,-1.30673,49.0169,8,0,0,0
0,1405716027,97888,-7.93993,19.2551,-24.4188,32.0948,-8.76491,-0.411072,3.17086,9.3299,2.64738,5.60644,-2.12002,48.9632,8,0,0,0
0,1405716028,98896,-8.50949,19.348,-24.2605,32.1765,-8.77882,-0.501923,3.1732,9.3482,2.9491,5.70671,-0.917569,48.8829,8,0,0,0
0,1405716029,99902,-8.3637,19.5395,-24.0601,32.1035,-8.68623,-0.417104,3.29395,9.29917,1.76985,4.20547,-1.61369,48.9121,8,0,0,0
0,1405716030,100906,-8.09121,20.0472,-24.1331,32.4001,-8.77954,-0.342202,3.21527,9.35604,1.31106,5.31785,-0.427136,48.8611,7,0,0,0
0,1405716031,101909,-8.07779,19.7383,-24.3394,32.3614,-8.79053,-0.468749,3.2193,9.37321,3.65169,4.51891,-2.34576,48.9186,7,0,0,0
0,1405716032,102913,-8.43865,19.7575,-24.3997,32.5102,-8.78616,-0.44533,3.20257,9.36223,2.82632,5.54626,-1.36674,48.9751,7,0,0,0
0,1405716033,103920,-8.29934,19.1951,-24.3264,32.0796,-8.80376,-0.498009,3.18316,9.37479,1.93888,4.35381,-0.443001,48.9467,6,0,0,0
0,1405716034,104926,-8.24072,20.0286,-24.1586,32.4453,-8.80561,-0.488725,3.22411,9.39003,1.74135,4.47475,-1.84143,48.849,8,0,0,0
0,1405716035,105931,-8.25297,20.0308,-24.4878,32.6955,-8.78546,-0.448211,3.2359,9.37316,1.26136,4.46263,-1.40213,48.8898,8,0,0,0
0,1405716036,106933,-8.29261,19.8949,-24.4905,32.6245,-8.80098,-0.454142,3.19995,9.37567,2.79685,4.73566,-1.99625,48.8954,8,0,0,0
0,1405716037,107935,-8.34598,19.8198,-23.9952,32.2218,-8.80285,-0.464915,3.19954,9.37781,2.60055,5.45687,-1.56839,48.7857,8,0,0,0
0,1405716038,108941,-8.33327,19.816,-24.2204,32.3843,-8.78127,-0.443155,3.2161,9.36218,3.00317,4.70647,-1.96513,48.9525,7,0,0,0
0,1405716039,109942,-8.62679,19.531,-24.142,32.2292,-8.78666,-0.469713,3.19908,9.3627,2.02398,5.20507,-0.399053,48.849,8,0,0,0
0,1405716040,110948,-8.46101,19.8685,-24.2077,32.4401,-8.77881,-0.483458,3.22684,9.36556,3.2921,4.35037,-1.1435,48.9295,7,0,0,0
0,1405716041,111949,-8.07643,20.019,-24.368,32.5543,-8.79124,-0.438981,3.19754,9.36498,1.14969,4.93741,-2.25244,48.7807,8,0,0,0
0,1405716042,112955,-8.27902,19.7873,-23.9941,32.1837,-8.79168,-0.438902,3.22651,9.37532,1.64488,4.70541,-0.856122,48.7661,8,0,0,0
0,1405716043,113956,-8.43633,19.5244,-24.0114,32.0768,-8.78902,-0.46949,3.20692,9.36758,2.5181,4.013,-1.26669,48.9199,8,0,0,0
0,1405716044,114961,-8.38693,19.6066,-24.2438,32.2881,-8.76786,-0.469345,3.20304,9.3464,2.29153,4.50747,-1.50007,48.7849,8,0,0,0
0,1405716045,115965,-8.14437,19.916,-24.1531,32.3473,-8.7766,-0.447275,3.22058,9.35954,3.06665,5.29008,-0.267942,48.8646,7,0,0,0
0,1405716046,116966,-8.33764,19.8521,-24.3615,32.5132,-8.79747,-0.473029,3.22004,9.38019,2.19546,4.44899,-0.935213,48.896,8,0,0,0
0,1405716047,117971,-8.30228,19.9871,-24.4398,32.6453,-8.79115,-0.463676,3.19983,9.36687,3.75259,4.59088,-2.75411,48.8076,7,0,0,0
0,1405716048,118975,-8.29902,19.8829,-24.5176,32.6391,-8.78668,-0.487232,3.22365,9.37203,2.22798,4.30518,-0.722976,48.8772,7,0,0,0
0,1405716049,119981,-8.4996,19.5358,-24.3426,32.349,-8.79015,-0.454061,3.18628,9.36084,2.44603,4.95791,-1.32881,48.8153,6,0,0,0
0,1405716050,120986,-8.26108,19.6896,-24.1814,32.2594,-8.81256,-0.420124,3.2332,9.39634,1.93395,4.45354,-1.24235,48.7674,7,0,0,0
0,1405716051,121990,-7.99068,20.2167,-24.6945,32.8996,-8.8122,-0.468368,3.17969,9.38002,2.21237,3.63904,-2.55728,48.8886,7,0,0,0
0,1405716052,122992,-8.04549,19.7003,-24.4159,32.3878,-8.77906,-0.439484,3.2209,9.36158,0.905467,4.4588,-1.62233,48.8164,8,0,0,0
0,1405716053,123993,-8.60604,19.0998,-24.5855,32.3004,-8.76763,-0.457881,3.18613,9.33983,2.95647,4.59983,-3.20935,48.8624,8,0,0,0
0,1405716055,125003,-7.70682,19.8164,-24.494,32.4352,-8.80399,-0.452955,3.17378,9.36954,1.25621,4.69663,-1.25834,48.7206,7,0,0,0
0,1405716056,126004,-8.23577,19.4021,-24.6891,32.4626,-8.76767,-0.50077,3.22536,9.35552,1.33712,4.39882,-2.48564,48.8573,8,0,0,0
0,1405716057,127012,-8.22538,19.3217,-23.9017,31.8163,-8.82804,-0.472142,3.17776,9.39444,2.94667,4.36514,-2.38386,48.736,7,0,0,0
0,1405716058,128015,-7.95551,19.8773,-24.5332,32.5619,-8.79854,-0.569046,3.18823,9.37565,2.31653,4.61489,-1.11332,48.8761,7,0,0,0
0,1405716059,129018,-7.63831,19.3787,-24.5187,32.1721,-8.7952,-0.462214,3.20055,9.37084,2.21926,4.25656,-1.48873,48.9132,7,0,0,0
0,1405716060,130023,-7.94695,19.4063,-24.6364,32.3529,-8.77532,-0.500044,3.20855,9.35688,1.60138,4.41254,-1.29182,48.9532,7,0,0,0
0,1405716061,131028,-7.67778,19.7268,-24.816,32.6179,-8.78389,-0.328991,3.23156,9.36525,2.35136,4.13532,-1.06185,48.9177,8,0,0,0
0,1405716062,132030,-8.00419,19.481,-24.8508,32.5751,-8.79346,-0.458591,3.23017,9.3792,1.78186,4.87553,-1.16948,48.8403,8,0,0,0
0,1405716063,133038,-7.9899,19.2217,-24.6626,32.2732,-8.77163,-0.487886,3.21992,9.35668,1.97531,3.97956,-1.37866,48.8837,7,0,0,0
0,1405716064,134041,-7.92795,19.188,-24.8624,32.3909,-8.80747,-0.403521,3.20394,9.38081,1.15044,5.87081,-1.50131,48.9189,8,0,0,0
0,1405716065,135045,-8.19815,19.5648,-24.8965,32.7082,-8.80306,-0.486543,3.17986,9.37241,2.22921,5.20136,-1.74544,48.8554,8,0,0,0
0,1405716066,136048,-7.95909,19.8541,-24.9494,32.8634,-8.6728,-0.4727,3.28059,9.28456,2.76888,5.04586,-2.00967,48.8961,8,0,0,0
0,1405716067,137049,-8.23111,19.397,-24.7469,32.5024,-8.79076,-0.527836,3.21846,9.37628,1.40147,4.7402,-2.81591,48.9058,8,0,0,0
0,1405716068,138053,-7.8885,19.797,-24.4028,32.3982,-8.79022,-0.438189,3.19927,9.36457,1.77981,5.32731,-1.20225,48.924,8,0,0,0
0,1405716069,139060,-8.14049,19.7418,-24.9382,32.8317,-8.76357,-0.39939,3.22227,9.34574,2.69501,5.6143,-1.0554,48.9338,8,0,0,0
0,1405716070,140065,-8.31922,18.9727,-24.7124,32.2471,-8.79969,-0.519219,3.20956,9.38112,2.43169,5.05879,-1.15748,48.9524,7,0,0,0
0,1405716071,141071,-8.48739,18.9805,-24.9298,32.4621,-8.73801,-0.560949,3.28405,9.3516,2.32618,5.30573,-0.302832,48.9079,8,0,0,0
0,1405716072,142078,-8.2943,19.322,-24.6431,32.3947,-8.80557,-0.421219,3.25089,9.39595,1.83985,4.70952,-1.56014,48.8971,8,0,0,0
0,1405716073,143081,-8.23491,19.6177,-24.994,32.8232,-8.72793,-0.454612,3.20172,9.30777,3.49634,4.82856,-1.78718,48.9333,7,0,0,0
0,1405716074,144084,-8.43408,19.5219,-24.459,32.4111,-8.78998,-0.453117,3.16113,9.3521,2.79885,4.41653,-2.65631,48.7946,7,0,0,0
0,1405716075,145092,-7.77238,19.8747,-25.1354,32.9727,-8.76994,-0.381968,3.18736,9.339,2.05291,3.46937,-1.06245,48.8709,8,0,0,0
0,1405716076,146096,-8.18064,19.7049,-24.8586,32.759,-8.76007,-0.394153,3.17356,9.32554,2.72332,4.16172,-1.35126,48.8891,7,0,0,0
0,1405716077,147104,-8.15341,19.4961,-24.4882,32.3458,-8.75647,-0.451034,3.16029,9.32023,2.51691,4.78937,-2.75955,48.8829,8,0,0,0
0,1405716078,148114,-8.27107,19.2812,-24.9454,32.5952,-8.78508,-0.450362,3.21974,9.36735,3.38729,4.5991,-1.21706,48.7623,9,0,0,0
0,1405716079,149115,-8.03263,19.4796,-24.9717,32.6736,-8.78755,-0.634848,3.20912,9.3767,4.04036,5.26765,-2.84265,48.9298,8,0,0,0
0,1405716080,150120,-8.25183,19.2357,-24.6364,32.3273,-8.80071,-0.551653,3.11332,9.35145,2.67029,4.21176,-1.02351,48.8665,8,0,0,0
0,1405716081,151122,-7.93159,19.909,-24.5484,32.5869,-8.76684,-0.465512,3.21121,9.34805,2.99951,4.31735,-0.942818,48.8412,7,0,0,0
0,1405716082,152123,-7.81398,19.8235,-24.9121,32.7818,-8.81953,-0.416551,3.23502,9.40335,2.21525,5.20092,-2.25277,48.8217,8,0,0,0
0,1405716083,153129,-7.89327,19.2438,-24.9116,32.4532,-8.86481,-0.345829,3.21861,9.43737,2.63053,4.71192,-0.677813,48.8673,7,0,0,0
0,1405716084,154131,-7.97968,19.7549,-24.4231,32.4102,-8.80418,-0.491469,3.19048,9.37732,2.32631,4.69242,-1.53457,48.8737,8,0,0,0
0,1405716085,155132,-8.17296,19.3702,-24.5606,32.33,-8.78009,-0.411894,3.19608,9.35278,2.29393,5.09378,-1.4698,48.8154,7,0,0,0
0,1405716086,156138,-8.15299,19.4725,-24.6143,32.427,-8.8035,-0.451664,3.17184,9.36836,3.9151,4.96168,-1.79213,48.7252,8,0,0,0
0,1405716087,157143,-7.90258,19.629,-24.5487,32.4096,-8.77807,-0.389505,3.2066,9.35353,2.58629,4.35255,-1.94663,48.8596,8,0,0,0
0,1405716088,158153,-8.00547,19.7104,-24.4434,32.4047,-8.82698,-0.416588,3.28005,9.42591,1.90347,4.71273,-1.88913,48.9613,8,0,0,0
0,1405716089,159173,-7.83213,19.5496,-24.6866,32.4493,-8.81398,-0.406534,3.23924,9.39916,2.11666,4.71217,-1.47905,48.9133,7,0,0,0
0,1405716090,160176,-8.15119,19.6477,-24.7155,32.6087,-8.77616,-0.448505,3.20476,9.35375,4.32426,4.48051,-2.33842,48.9132,8,0,0,0
0,1405716091,161178,-8.16348,19.3433,-24.4242,32.2078,-8.77764,-0.462385,3.22643,9.36325,3.54826,4.94037,-3.06101,48.7867,8,0,0,0
0,1405716092,162181,-8.15543,19.5477,-24.6647,32.5111,-8.78381,-0.446513,3.22064,9.36628,2.72796,4.84151,-1.20901,48.8557,8,0,0,0
0,1405716093,163186,-8.32321,18.9522,-24.5845,32.1381,-8.79618,-0.427759,3.18853,9.36603,3.36671,3.94019,-1.9624,48.8788,8,0,0,0
0,1405716094,164191,-8.09217,19.8935,-24.7613,32.7773,-8.79795,-0.397056,3.22453,9.37866,3.27268,5.05127,-1.09783,48.9549,8,0,0,0
0,1405716095,165199,-5.18694,20.8928,-23.321,31.7377,-8.77333,-0.46694,3.21895,9.35686,2.15577,4.5248,-1.90897,48.7719,8,0,0,0
0,1405716096,166202,-7.99603,19.5958,-24.8673,32.6544,-8.83376,-0.448261,3.22076,9.41326,1.77267,5.12665,-0.671129,48.8937,7,0,0,0
0,1405716097,167211,-7.34364,17.9711,-30.3352,36.0155,-8.76581,-0.477007,3.17708,9.336,0.741817,4.2894,-2.91565,48.7714,7,0,0,0
0,1405716098,168219,-6.07622,20.9068,-29.9976,37.0658,-8.80722,-0.419375,3.15666,9.36522,3.54933,3.907,-1.64781,48.794,7,0,0,0
0,1405716099,169221,0.610065,30.8556,-28.4526,41.9761,-9.02312,-0.282918,3.12936,9.55456,2.38489,5.02233,-1.62019,48.6891,7,0,0,0
0,1405716100,170225,-4.63634,22.7926,-29.3636,37.4596,-9.205,-0.315145,3.14515,9.73258,1.16756,4.80655,-3.10646,48.7364,7,0,0,0
0,1405716101,171229,-7.24406,18.2394,-29.7886,35.6723,-8.80878,-0.448395,3.23191,9.39366,1.68003,4.13627,-2.37161,48.832,7,0,0,0
0,1405716102,172232,-7.30784,18.1647,-29.649,35.5306,-8.79226,-0.439115,3.22963,9.37695,2.39524,4.75368,-1.56464,48.8507,8,0,0,0
0,1405716103,173235,11.9002,43.7727,-25.5709,52.0724,-8.96819,-0.355814,3.13255,9.5062,1.81533,4.24259,-2.19683,48.9043,7,0,0,0
0,1405716104,174243,25.7074,57.691,-20.8388,66.5084,-8.71277,-0.556902,3.21061,9.30218,2.0442,3.7251,-1.37504,48.8518,7,0,0,0
0,1405716105,175248,30.3029,60.1996,-19.5092,70.1631,-8.82665,-0.424586,3.23571,9.41062,1.99139,4.51054,-1.92162,48.8034,8,0,0,0
0,1405716106,176254,28.5592,6.9072,-13.0744,32.1602,-8.7925,-0.434357,3.19843,9.36625,2.00915,3.67251,-2.31801,48.8691,7,0,0,0
0,1405716107,177265,2.8909,12.6527,-24.6435,27.8523,-8.42112,-0.288914,3.45609,9.10732,2.78516,3.43454,-0.403577,48.8733,8,0,0,0
0,1405716108,178268,-7.25126,18.2249,-29.9866,35.8319,-8.79102,-0.403264,3.20704,9.36642,2.58246,4.84504,-0.841034,48.8196,8,0,0,0
0,1405716109,179270,-7.38888,18.1683,-30.0492,35.8837,-8.77955,-0.452166,3.21308,9.35996,2.17914,4.3517,0.291191,48.8335,7,0,0,0
0,1405716110,180272,-7.09334,18.2545,-29.611,35.5014,-8.80448,-0.439988,3.21296,9.38272,0.312691,5.23463,-0.742114,48.8384,8,0,0,0
0,1405716111,181277,-7.122,18.202,-30.0121,35.8157,-8.79543,-0.417036,3.24038,9.38262,1.22157,5.25876,-1.97207,48.9072,6,0,0,0
0,1405716112,182283,-6.9799,18.6592,-29.5427,35.6323,-8.79611,-0.454315,3.2173,9.37705,2.03956,3.73675,-2.52433,48.9873,9,0,0,0
0,1405716113,183287,-7.25379,17.9829,-30.3998,36.0576,-8.8136,-0.466405,3.15616,9.37328,1.70665,4.50216,-1.91738,48.8891,7,0,0,0
0,1405716114,184289,-7.28219,18.5658,-29.2254,35.3814,-8.80554,-0.44271,3.17779,9.37186,1.32633,5.49869,-2.17623,48.8079,8,0,0,0
0,1405716115,185297,-7.41035,18.11,-30.1309,35.9271,-8.79837,-0.415784,3.18296,9.36565,2.17494,5.88588,-1.61423,48.9368,7,0,0,0
0,1405716116,186302,-7.43188,18.4645,-29.1931,35.3328,-8.80135,-0.392961,3.20092,9.37359,2.30734,5.26626,-1.69757,48.8448,8,0,0,0
0,1405716117,187303,-7.21046,18.5494,-29.9143,35.9296,-8.8019,-0.400461,3.163,9.36153,1.17629,5.00743,-2.21351,48.8472,7,0,0,0
0,1405716118,188306,-3.36532,15.6634,-28.2606,32.4858,-8.76657,-0.459047,3.29894,9.37798,1.42592,6.2986,-2.40696,48.7491,8,0,0,0
0,1405716119,189315,-9.26698,8.76769,-28.5158,31.2394,-8.85117,-0.659026,3.49423,9.53872,4.98783,3.625,-3.02061,48.875,8,0,0,0
0,1405716120,190317,-6.32113,9.19124,-28.9844,31.0569,-8.62218,-0.520323,3.50947,9.32358,8.25018,3.62915,-6.11116,48.9048,7,0,0,0
0,1405716121,191319,-3.94495,14.365,-30.5774,34.0131,-8.64679,-0.448749,3.32035,9.27324,12.5013,4.09975,-4.58018,48.7259,8,0,0,0
0,1405716122,192325,-0.162067,25.1348,-32.2443,40.8837,-8.66256,-0.422247,3.2897,9.27579,9.7738,3.11531,-4.26983,48.9243,8,0,0,0
0,1405716123,193332,-0.246019,12.9368,-32.4886,34.9704,-8.96442,-0.327934,3.40149,9.59367,6.17742,5.4521,-6.90136,48.7853,8,0,0,0
0,1405716124,194333,0.260624,12.5612,-33.4061,35.6906,-8.36563,-0.38805,3.23063,8.97615,5.16259,5.17417,-3.50166,48.7531,7,0,0,0
0,1405716125,195352,-0.237109,16.4311,-34.6798,38.3761,-9.04661,-0.42775,3.33297,9.65054,2.05669,4.96146,-2.51806,48.8481,6,0,0,0
0,1405716126,196359,-1.04339,14.8566,-33.691,36.836,-8.33407,-0.284041,3.01667,8.86779,-1.66527,5.49152,-0.447004,48.8505,8,0,0,0
0,1405716127,197360,-3.34067,14.9909,-32.994,36.3936,-8.93888,-0.263471,3.22241,9.50563,-9.55242,5.42189,3.51075,48.7847,8,0,0,0
0,1405716128,198362,-5.00018,15.8486,-31.5688,35.6759,-8.74732,-0.269373,2.96034,9.23861,-10.8332,3.83983,5.12343,48.747,7,0,0,0
0,1405716129,199369,-3.9785,19.2983,-29.2576,35.2741,-9.02509,-0.317717,3.21248,9.58505,-7.12984,4.84324,3.45622,48.8419,6,0,0,0
0,1405716130,200376,-5.57622,20.1184,-28.9192,35.6674,-8.81664,-0.541309,3.38332,9.45901,3.1733,4.81891,0.993601,48.7778,7,0,0,0
0,1405716131,201383,-1.33173,19.7461,-27.4943,33.8765,-7.95764,-0.497535,3.30371,8.63053,4.726,3.3469,-4.1878,48.8057,7,0,0,0
0,1405716132,202385,-1.46075,24.8206,-29.0531,38.2397,-8.02784,-0.58452,2.89748,8.55472,8.96818,6.47464,-6.28718,48.9236,7,0,0,0
0,1405716133,203388,-2.8525,17.5193,-29.7468,34.6401,-8.78294,-0.650886,3.23551,9.38255,9.57211,5.10347,-6.35275,48.826,6,0,0,0
0,1405716134,204395,-2.44657,16.4011,-31.8984,35.9512,-8.54292,-0.610279,3.31311,9.18317,9.70404,4.02074,-3.54235,48.8381,7,0,0,0
0,1405716135,205397,-2.6331,15.5884,-33.0143,36.6043,-8.68732,-0.622547,3.14656,9.26056,6.26723,4.63335,-4.65063,48.8626,8,0,0,0
0,1405716136,206399,-0.761847,15.1657,-33.1995,36.5073,-8.52543,-0.545129,3.29276,9.15546,6.73418,4.31687,-4.13766,48.8624,7,0,0,0
0,1405716137,207405,-0.198155,16.7044,-33.7177,37.6293,-8.43836,-0.733241,3.32402,9.09905,4.88026,5.68825,-6.08346,48.8232,8,0,0,0
0,1405716138,208413,0.793538,20.3585,-34.53,40.0926,-8.71522,-0.663649,3.44251,9.39395,8.1328,5.16643,-2.02331,48.9247,7,0,0,0
0,1405716139,209416,1.32522,18.0307,-35.5051,39.8431,-8.68919,-0.484241,3.37743,9.33507,6.43627,6.5057,-5.81987,48.8082,7,0,0,0
0,1405716140,210424,1.33609,16.8511,-36.6143,40.3281,-8.56279,-0.513132,3.28799,9.18671,9.04571,3.1975,-3.75053,48.9802,7,0,0,0
0,1405716141,211425,1.48836,16.3128,-37.3271,40.7632,-8.6531,-0.726355,3.53256,9.37458,8.74768,5.37094,-0.615052,48.762,7,0,0,0
0,1405716142,212431,5.22968,15.9854,-37.2229,40.8464,-7.86279,-0.060092,3.01806,8.42234,8.342,4.24769,-2.96448,48.8484,7,0,0,0
0,1405716143,213440,4.16548,15.6178,-37.3527,40.7,-9.45138,-0.738281,3.2416,10.0191,4.95432,9.23636,-5.13401,48.8242,5,0,0,0
0,1405716144,214445,3.10605,14.5596,-38.5901,41.3621,-8.73151,-0.961936,3.07817,9.30804,5.74795,2.60233,-3.02157,48.9687,7,0,0,0
0,1405716145,215446,4.49752,14.054,-38.2373,40.9858,-9.12812,-0.688504,3.1413,9.67803,5.40131,4.35483,-1.33124,48.8432,8,0,0,0
0,1405716146,216449,5.45624,15.1209,-37.5243,40.8226,-8.46379,-0.230731,3.21302,9.05608,-0.0863567,3.96047,-1.42538,48.8955,7,0,0,0
0,1405716147,217454,4.32523,16.1625,-38.5191,41.9959,-8.82924,-0.426898,3.12841,9.37682,0.858681,3.99623,-1.94036,48.7811,7,0,0,0
0,1405716148,218459,3.26853,13.9946,-38.9743,41.5394,-9.0436,-0.699589,2.96542,9.54306,2.10481,4.09755,-1.44402,48.8551,8,0,0,0
0,1405716149,219466,3.59536,15.9452,-38.9937,42.2811,-8.66296,-0.554809,3.25192,9.26982,1.56479,5.30304,-2.93534,48.8328,7,0,0,0
0,1405716150,220468,3.76768,15.5308,-38.6562,41.8295,-8.84171,-0.765711,3.18105,9.42769,3.39299,6.50219,-1.39021,48.9356,8,0,0,0
0,1405716151,221475,5.9898,18.2351,-38.5589,43.0719,-8.39257,-0.327503,3.15261,8.97115,6.2231,5.27649,-0.135639,48.8402,8,0,0,0
0,1405716152,222479,5.59717,11.7984,-36.6426,38.9,-9.39825,-1.42281,3.1053,9.99972,4.25632,3.12992,-6.65675,48.9322,6,0,0,0
0,1405716153,223485,7.21533,13.56,-38.4314,41.3872,-9.98617,0.000177165,3.87606,10.712,3.34194,9.29798,-4.59021,48.9024,7,0,0,0
0,1405716155,225398,5.7072,14.3182,-38.5488,41.5161,-9.32834,-0.509216,3.35357,9.92591,7.5956,2.5188,-2.79565,48.965,3,0,0,0
0,1405716156,226399,6.70443,13.8425,-39.6585,42.5366,-9.30714,-0.423037,3.15571,9.83668,4.5896,4.18874,-0.517159,48.9381,8,0,0,0
0,1405716157,227405,7.55479,14.035,-39.8976,42.9637,-9.28927,-1.1856,3.05705,9.85098,7.70052,4.59891,-1.05602,48.8099,7,0,0,0
0,1405716158,228410,8.35484,14.7293,-39.7486,43.2055,-9.6347,-0.449938,3.17444,10.1542,1.04124,5.01407,0.41064,48.9759,8,0,0,0
0,1405716159,229416,7.67935,14.8859,-39.7152,43.1029,-8.83057,-0.522638,2.97106,9.33163,-1.63068,5.95736,-1.07891,48.9161,8,0,0,0
0,1405716160,230421,6.89406,14.3509,-39.5774,42.6597,-9.26282,-0.560992,3.19636,9.81485,0.887192,6.34997,0.837323,48.8728,8,0,0,0
0,1405716161,231423,6.01196,14.1309,-39.1592,42.0627,-8.83576,-0.493899,3.11112,9.38049,-0.235586,3.70585,-1.19988,48.9801,7,0,0,0
0,1405716162,232428,6.9109,14.0821,-39.5897,42.5842,-8.94217,-0.66993,3.0693,9.47796,6.72203,5.42985,-3.32763,48.9206,7,0,0,0
0,1405716163,233429,8.05177,14.2346,-39.2209,42.494,-8.76115,-0.52159,3.27773,9.36874,6.80289,6.09765,-3.73936,49.0094,8,0,0,0
0,1405716164,234434,8.8441,14.7319,-39.6235,43.1887,-8.82164,-0.330807,2.84649,9.27541,7.16977,4.91328,-3.98722,48.909,7,0,0,0
0,1405716165,235442,10.1556,14.5391,-39.9382,43.6987,-9.04329,-0.407033,3.00769,9.53902,8.31626,4.48338,-6.53019,48.9567,8,0,0,0
0,1405716166,236453,11.5337,14.3028,-40.2727,44.2661,-8.6601,-0.615438,3.04106,9.19914,9.81277,5.42004,-4.4741,49.0188,6,0,0,0
0,1405716167,237454,12.9141,14.2035,-40.4348,44.7603,-8.99916,-0.783201,3.14998,9.56665,11.0149,6.50824,-6.04446,48.9583,7,0,0,0
0,1405716168,238457,14.776,14.5326,-40.2393,45.2629,-8.69793,-0.262861,3.04315,9.21867,9.95505,3.62463,-7.92604,48.9178,8,0,0,0
0,1405716169,239461,16.5194,14.6818,-40.3936,46.0444,-9.01818,-0.956457,2.97271,9.54356,9.67426,3.62452,-7.12631,48.8781,7,0,0,0
0,1405716170,240464,18.0387,14.0183,-40.3889,46.4023,-8.91681,-0.743222,3.02541,9.44537,9.60521,3.18543,-6.20365,48.8486,8,0,0,0
0,1405716171,241469,19.7109,13.9349,-39.9657,46.69,-8.96087,-0.963692,3.05164,9.51517,10.1134,5.93134,-2.83943,48.8893,7,0,0,0
0,1405716172,242473,20.4751,13.975,-39.7338,46.8327,-8.74141,-0.953686,2.85731,9.24586,8.91919,5.84942,-4.25765,48.7518,8,0,0,0
0,1405716173,243480,23.3155,20.9537,-39.4469,50.3858,-8.56974,-0.869479,3.20321,9.19005,9.37873,5.20199,-2.15641,48.7008,7,0,0,0
0,1405716174,244486,23.2034,19.2057,-39.033,49.3035,-8.81028,-0.87236,3.32573,9.45741,6.45896,6.02994,-2.76169,48.8105,8,0,0,0
0,1405716175,245491,25.3084,13.1504,-38.1148,47.6045,-8.63704,-1.1254,2.80888,9.15176,6.93943,5.26458,-1.65025,48.608,7,0,0,0
0,1405716176,246498,26.2814,8.16195,-36.5441,45.7472,-8.75247,-0.90752,3.26088,9.38417,3.98459,5.5974,-3.73818,48.7234,7,0,0,0
0,1405716177,247505,26.8011,11.1608,-37.1728,47.1665,-8.94898,-0.993762,3.30383,9.59098,3.85064,3.33468,-2.55324,48.6596,8,0,0,0
0,1405716178,248515,27.1005,21.0951,-39.0201,51.9809,-8.55268,-0.839469,3.36217,9.22807,3.13192,4.44419,-2.38338,48.6616,7,0,0,0
0,1405716179,249519,29.8859,14.4501,-36.3671,49.2396,-8.42448,-0.784954,3.3226,9.08998,4.69402,4.13896,-1.67762,48.6583,6,0,0,0
0,1405716180,250521,26.6389,14.3865,-38.0854,48.6528,-8.72397,-0.662792,3.40521,9.38842,2.47273,6.5252,-2.01643,48.7831,6,0,0,0
0,1405716181,251528,25.4969,8.55503,-36.8347,45.6078,-8.86136,-0.748095,3.49745,9.55591,2.08325,5.15971,-1.84956,48.7595,8,0,0,0
0,1405716182,252535,25.7376,14.7846,-38.7366,48.8009,-8.85375,-0.599347,3.49353,9.53692,2.26109,3.88784,-1.00688,48.7824,6,0,0,0
0,1405716183,253540,25.2644,14.53,-38.1211,47.9857,-8.83188,-0.68296,3.59212,9.55886,2.20051,4.43699,-0.876219,48.7065,7,0,0,0
0,1405716184,254542,25.8332,14.6596,-38.8721,48.9213,-8.75785,-0.737572,3.52417,9.46909,3.5535,6.07401,-2.34166,48.6867,6,0,0,0
0,1405716185,255551,26.6476,15.8955,-38.0085,49.0653,-8.65905,-0.798429,3.35117,9.31918,3.64364,5.16286,-3.68945,48.664,7,0,0,0
0,1405716186,256561,26.8191,8.71007,-36.9184,46.4554,-8.67808,-0.678715,3.34934,9.32673,5.57446,4.31754,-3.16392,48.6938,7,0,0,0
0,1405716187,257571,28.8262,25.1036,-37.4462,53.5104,-8.48856,-0.640193,3.53655,9.21806,5.51537,4.61152,-3.46077,48.7016,7,0,0,0
0,1405716188,258572,29.9095,9.39477,-34.1552,46.3618,-8.67413,-1.05691,3.53193,9.42508,6.3015,4.9372,-4.79618,48.7252,8,0,0,0
0,1405716189,259574,29.4976,14.7072,-34.6285,47.8073,-8.76678,-0.808203,3.3045,9.40369,8.50911,5.24122,-4.9475,48.7155,8,0,0,0
0,1405716190,260576,33.5921,21.0774,-35.6366,53.3165,-8.50132,-0.931189,3.39784,9.20243,7.76392,5.82289,-4.00746,48.7618,6,0,0,0
0,1405716191,261582,36.5073,22.2822,-37.9127,57.1547,-8.70682,-0.677635,3.10671,9.26928,7.26008,6.00555,-4.50378,48.7227,7,0,0,0
0,1405716192,262587,35.7613,22.5305,-36.1984,55.649,-8.8686,-0.748173,3.06025,9.41154,4.53599,6.43681,0.0507317,48.6467,6,0,0,0
0,1405716193,263590,37.2995,22.3365,-32.8071,54.4653,-8.53853,-0.682456,3.30576,9.18152,4.88851,4.68121,-3.0874,48.7748,8,0,0,0
0,1405716194,264593,29.4076,19.6199,-29.8849,46.291,-8.57287,-0.698644,3.24504,9.19307,4.467,5.61102,-1.78652,48.7218,8,0,0,0
0,1405716195,265599,30.782,26.2203,-31.6619,51.3567,-8.90158,-0.777123,3.21989,9.49788,4.757,4.65581,-2.14889,48.7524,7,0,0,0
0,1405716196,266603,28.606,26.7677,-32.2985,50.7741,-8.88434,-0.647952,3.16203,9.4525,4.78714,4.41255,-2.64149,48.6771,7,0,0,0
0,1405716197,267612,24.7203,21.1514,-32.0712,45.6841,-8.77802,-0.797215,3.23909,9.39047,4.59187,4.76724,-2.18621,48.7382,7,0,0,0
0,1405716198,268618,27.4478,22.2079,-36.1013,50.4963,-8.9231,-0.791225,3.37194,9.57172,1.78947,5.95832,-1.76876,48.7431,7,0,0,0
0,1405716199,269625,28.6586,15.6608,-40.4126,51.9591,-8.73405,-0.828636,3.18856,9.33473,1.68665,4.2535,-0.569432,48.7222,6,0,0,0
0,1405716200,270632,27.5485,8.93707,-26.9633,39.5703,-8.76835,-0.638045,3.25726,9.37554,0.496202,4.44215,0.70893,48.7238,7,0,0,0
0,1405716201,271636,30.9538,15.9289,-31.947,47.2491,-8.47194,-0.831998,3.32105,9.13758,1.96033,3.95799,-0.662437,48.7566,8,0,0,0
0,1405716202,272638,30.4647,11.1571,-34.0673,47.0442,-9.06657,-1.07003,3.20831,9.67682,2.12177,3.05783,-0.0609615,48.7914,8,0,0,0
0,1405716203,273646,33.3959,11.6766,-27.1004,44.5652,-8.7846,-0.818486,3.06283,9.33917,3.17741,4.11276,-1.97334,48.799,8,0,0,0
0,1405716204,274649,31.5932,17.1443,-29.383,46.4265,-8.55585,-0.757984,3.11437,9.13654,2.28605,6.08262,-1.28378,48.8853,6,0,0,0
0,1405716205,275650,33.0585,18.8212,-30.8381,48.9703,-8.70908,-0.769796,3.07609,9.26838,2.10108,3.89871,-1.70786,48.7559,7,0,0,0
0,1405716206,276658,32.3253,12.7586,-31.3862,46.8274,-8.75736,-0.66114,3.19166,9.34425,1.42639,5.20945,-0.799467,48.8687,6,0,0,0
0,1405716207,277661,34.7691,18.7189,-32.5391,51.1672,-8.64556,-0.531379,3.41313,9.31008,-4.77546,2.81232,3.43614,48.8442,7,0,0,0
0,1405716208,278666,34.5364,15.0374,-33.1499,50.1777,-8.66939,-0.238039,3.13781,9.22284,-16.1614,4.11948,6.95778,48.945,7,0,0,0
0,1405716209,279671,30.2644,21.9688,-36.7807,52.4536,-8.69249,-0.878286,3.01652,9.24284,-20.0198,6.99594,10.0174,48.8959,8,0,0,0
0,1405716210,280676,23.5328,11.1936,-38.3363,46.3547,-8.9219,-0.100202,2.97036,9.4039,-19.9152,4.04547,8.81826,48.7408,7,0,0,0
0,1405716211,281684,20.2879,18.8764,-41.1823,49.6377,-8.84564,-0.159474,3.14285,9.38873,-17.6497,5.44751,8.95797,48.9615,7,0,0,0
0,1405716212,282692,13.5947,7.27953,-38.2226,41.2162,-9.09643,-0.40339,2.84913,9.54072,-20.3536,5.9411,8.0669,48.7817,7,0,0,0
0,1405716213,283695,11.8414,20.067,-39.5541,45.9068,-9.06906,-0.353784,3.09805,9.59015,-18.601,0.212735,8.34441,48.8724,6,0,0,0
0,1405716214,284701,5.37132,10.2187,-38.1126,39.8226,-8.7711,-0.475392,3.07879,9.30791,-18.3295,4.17241,9.96131,48.8793,8,0,0,0
0,1405716215,285702,2.85155,14.7545,-34.9311,38.0264,-8.75285,-0.424762,3.20567,9.33109,-14.7056,3.4318,6.66141,48.9006,8,0,0,0
0,1405716216,286705,-3.33529,15.6662,-33.9246,37.5157,-8.64436,-0.536459,3.30324,9.26953,-7.03618,3.81241,3.25907,48.9578,8,0,0,0
0,1405716217,287713,-2.38851,21.8098,-33.3301,39.9032,-9.05363,-0.30708,3.2571,9.62659,-0.599449,4.03386,-0.890401,48.9402,7,0,0,0
0,1405716218,288719,-2.72055,15.9466,-31.6413,35.5369,-8.79868,-0.763343,3.43581,9.47651,-1.90559,6.70911,0.173469,48.8696,7,0,0,0
0,1405716219,289725,-2.5421,21.1551,-31.4362,37.9768,-8.8222,-0.683436,3.28944,9.44027,-1.62655,5.08839,0.460594,48.8651,8,0,0,0
0,1405716220,290731,-3.57211,21.1009,-31.6451,38.2024,-8.41592,-0.411384,3.3247,9.05818,6.85444,6.95808,-3.88846,48.8337,7,0,0,0
0,1405716221,291738,-3.50394,16.6579,-31.871,36.132,-8.83712,-0.882915,3.03599,9.38571,8.6134,5.9983,-3.77856,48.9085,8,0,0,0
0,1405716222,292742,-5.11117,14.7389,-33.5311,36.9823,-8.21411,-0.614035,3.15602,8.82095,9.95765,3.16948,-4.35031,48.8163,8,0,0,0
0,1405716223,293753,-4.25879,16.0402,-35.2212,38.9354,-9.04353,-0.745942,3.0758,9.58136,7.21566,3.35039,-1.72263,48.8006,7,0,0,0
0,1405716224,294756,-4.10001,16.8969,-34.8251,38.9243,-9.07468,-0.686375,3.06312,9.60227,0.939257,4.16624,-0.90208,48.8067,8,0,0,0
0,1405716225,295760,-5.48602,13.444,-34.5034,37.4342,-8.6235,-0.460872,3.18414,9.20413,1.81891,4.59534,-0.544842,48.7189,8,0,0,0
0,1405716226,296763,-4.50711,18.7531,-34.8052,39.7919,-8.84696,-0.981635,3.4093,9.53182,1.66719,4.18263,-2.48239,48.8106,8,0,0,0
0,1405716227,297774,-2.29271,15.9776,-33.5154,37.1998,-8.83696,-0.551858,3.19369,9.41255,1.64283,4.02916,-2.06452,48.8693,6,0,0,0
0,1405716228,298775,-2.70877,17.0988,-33.7067,37.8926,-8.55354,-0.727587,3.08684,9.12255,0.792511,4.01229,-0.472328,48.7608,7,0,0,0
0,1405716229,299783,-4.04356,17.2115,-33.7797,38.1268,-8.48851,-0.717095,3.38433,9.16639,-0.173289,5.54415,-1.75985,48.749,7,0,0,0
0,1405716230,300784,-6.2944,15.6286,-33.4085,37.4166,-8.43168,-0.745107,3.29951,9.08489,0.27452,4.33257,-1.32644,48.8372,7,0,0,0
0,1405716231,301794,-6.72813,16.5624,-33.1441,37.6578,-8.71437,-0.82146,3.10155,9.28626,0.440256,4.92261,-2.23552,48.8674,8,0,0,0
0,1405716232,302799,-7.02643,17.0035,-33.5684,38.2796,-8.63809,-0.759924,3.24698,9.25943,3.76248,3.58533,-1.77287,48.8446,7,0,0,0
0,1405716233,303808,-7.72292,14.25,-33.1913,36.9373,-8.80847,-1.04475,3.27767,9.45641,2.6527,5.39172,-2.41137,48.8865,7,0,0,0
0,1405716234,304811,-6.21403,15.9138,-32.4499,36.6723,-8.78181,-0.971675,3.44776,9.48427,1.02152,5.21354,-0.71108,48.8029,7,0,0,0
0,1405716235,305814,-6.01946,15.2008,-31.5894,35.5695,-8.6317,-0.586886,3.19574,9.22299,1.82086,5.50837,-1.0144,48.8727,8,0,0,0
0,1405716236,306816,-6.30904,16.9224,-31.3361,36.1679,-8.93664,-0.820888,3.33521,9.57398,-1.9236,4.6904,-0.718785,48.9478,7,0,0,0
0,1405716237,307817,-6.7897,12.7911,-30.7217,33.9637,-8.79392,-0.898738,3.42126,9.4787,0.67213,4.63846,-0.567938,48.7751,8,0,0,0
0,1405716238,308824,-5.31901,12.5906,-30.2094,33.1576,-8.65312,-0.617663,3.19936,9.24629,1.47163,6.01456,-3.19527,48.8832,8,0,0,0
0,1405716239,309830,-4.84127,12.1586,-32.5881,35.1177,-9.15043,-0.780302,3.52186,9.83579,-6.21861,3.83365,2.67853,48.8703,7,0,0,0
0,1405716240,310833,-4.49721,22.0472,-25.187,33.7741,-8.25116,-0.575019,3.45799,8.96493,-4.54389,3.45383,2.66059,48.7692,6,0,0,0
0,1405716241,311845,-9.06119,17.49,-28.3489,34.5205,-9.12547,-0.690885,3.26105,9.71525,-0.484364,5.80718,-0.835431,48.8845,7,0,0,0
0,1405716242,312852,-10.0671,16.7667,-28.9229,34.9142,-8.35256,-0.87634,2.71915,8.82763,1.85883,3.88334,0.174477,48.9587,8,0,0,0
0,1405716243,313853,-9.92368,18.3077,-28.5241,35.3168,-8.835,-0.877767,3.13299,9.41506,0.533185,5.81546,-1.13055,48.9421,8,0,0,0
0,1405716244,314854,-10.5963,15.5916,-27.8148,33.6012,-8.4235,-0.944974,3.19458,9.05835,3.20629,2.63984,-0.641769,48.8234,8,0,0,0
0,1405716245,315859,-10.4885,16.8096,-28.0437,34.3369,-9.11794,-0.901957,3.06011,9.65995,5.21641,5.30119,-3.54838,48.9028,5,0,0,0
0,1405716246,316861,-9.3493,14.7688,-27.9465,32.9626,-8.86403,-0.863837,3.12972,9.43993,1.00117,4.54196,-2.59251,48.8452,6,0,0,0
0,1405716247,317868,-9.60827,17.1823,-28.5477,34.6774,-8.93623,-0.904027,3.07342,9.49312,4.90228,3.95598,-3.23036,48.8829,7,0,0,0
0,1405716248,318872,-9.34018,17.9325,-28.9173,35.2849,-8.86923,-0.851791,3.23812,9.4802,1.13873,5.34887,-1.18167,48.7844,8,0,0,0
0,1405716249,319873,-7.26476,11.4843,-27.414,30.5973,-8.65258,-0.992811,3.39943,9.34928,0.444337,4.70257,-0.382892,48.8323,8,0,0,0
0,1405716251,321239,-6.63612,23.4804,-28.7141,37.6811,-8.54043,-1.02724,3.33132,9.22452,3.17459,4.29993,-2.19824,48.7867,6,0,0,0
0,1405716252,322244,-6.55188,12.8172,-27.5008,31.0403,-8.6752,-0.979111,3.4942,9.40357,2.87171,4.55847,-3.24332,48.7794,8,0,0,0
0,1405716253,323247,-7.42224,20.1234,-28.743,35.8636,-8.46957,-1.10756,3.44817,9.21142,2.25043,6.61962,-2.50097,48.7339,7,0,0,0
0,1405716254,324253,-7.25142,13.6581,-28.4439,32.3757,-8.6604,-1.0306,3.22399,9.29832,4.52456,5.1775,-2.08038,48.7246,8,0,0,0
0,1405716255,325259,-6.41155,16.8802,-29.498,34.5858,-8.82959,-0.822356,3.0975,9.39322,5.06925,2.63537,0.0570083,48.7603,7,0,0,0
0,1405716256,326265,-7.07869,14.3579,-29.1682,33.2722,-8.97725,-1.01515,3.434,9.66508,2.66999,5.84924,-0.189379,48.8936,8,0,0,0
0,1405716257,327266,-8.9868,18.5979,-31.0877,37.3241,-8.3153,-0.709171,2.92112,8.84195,2.97621,4.92443,-0.584567,48.8641,6,0,0,0
0,1405716258,328276,-6.83662,19.7088,-30.9524,37.3259,-8.90707,-0.852428,3.25326,9.52083,2.11048,5.47717,-1.62266,48.9283,8,0,0,0
0,1405716259,329279,-10.6383,17.2487,-31.6997,37.624,-8.84074,-1.01215,3.02595,9.39891,3.29039,4.32835,-1.07427,48.8692,7,0,0,0
0,1405716260,330287,-9.44471,18.854,-30.6005,37.1627,-8.73643,-0.78609,3.06092,9.29045,1.72989,5.08046,0.413423,49.0075,8,0,0,0
0,1405716261,331295,-9.61334,16.9369,-30.7016,36.3575,-8.93253,-0.885161,3.05964,9.4834,2.19892,4.78581,-2.02355,48.8544,7,0,0,0
0,1405716262,332303,-9.34081,18.5058,-30.8089,37.1336,-8.92927,-0.921157,3.04197,9.47808,3.65218,5.10443,-1.5564,48.8862,7,0,0,0
0,1405716263,333306,-10.2561,15.3516,-30.8004,35.9099,-8.86964,-0.838319,3.27284,9.4913,1.68945,4.9462,-0.90867,49.0025,8,0,0,0
0,1405716264,334309,-11.3296,15.0825,-30.5713,35.9227,-8.95128,-1.00026,3.17448,9.55004,2.17583,4.9807,-0.635809,49.1238,7,0,0,0
0,1405716265,335315,-10.3271,14.2984,-29.6878,34.532,-8.7856,-0.952731,3.14738,9.38086,2.72953,3.3082,-1.48284,48.954,8,0,0,0
0,1405716266,336321,-10.2555,20.5024,-30.022,37.7736,-8.86917,-0.894116,3.19601,9.46974,2.44945,5.41096,-1.9673,48.9851,7,0,0,0
0,1405716267,337325,-12.2424,18.5718,-30.2067,37.5131,-8.71481,-0.855905,2.99314,9.25415,3.96652,4.89585,-1.53793,48.9322,7,0,0,0
0,1405716268,338331,-11.316,19.88,-29.332,37.1972,-8.98305,-0.71217,3.0945,9.52777,2.03155,4.20281,-1.33168,48.9403,8,0,0,0
0,1405716269,339336,-11.5128,20.2868,-28.8587,37.1069,-8.9016,-1.12404,3.01073,9.46396,1.45912,4.86741,-3.3661,48.757,7,0,0,0
0,1405716270,340338,-11.7758,16.0764,-28.1923,34.5243,-8.83906,-0.920417,3.14766,9.42783,-2.17471,4.16661,2.50625,48.8565,7,0,0,0
0,1405716271,341339,-11.5863,20.9511,-28.3331,37.0938,-8.76994,-0.905308,3.16448,9.36725,-3.45656,4.82395,2.40926,49.072,7,0,0,0
0,1405716272,342345,-12.6153,13.1531,-25.3437,31.2162,-8.83481,-0.92825,3.24015,9.4559,1.26921,2.79654,-1.64235,48.9063,7,0,0,0
0,1405716273,343350,-11.3579,24.4435,-24.8439,36.6566,-8.77611,-0.724408,3.2672,9.39252,2.32259,3.07079,-2.52776,48.9566,6,0,0,0
0,1405716274,344353,-11.1154,23.4308,-24.4739,35.6585,-8.99278,-0.866739,3.23003,9.5945,0.97963,3.76441,-1.1792,48.9441,7,0,0,0
0,1405716275,345356,-11.1635,18.9679,-24.6475,33.044,-8.89245,-0.869429,3.24085,9.50446,2.28261,4.57352,-1.2581,48.9968,8,0,0,0
0,1405716276,346360,-10.4745,16.3293,-25.0551,31.6879,-8.58026,-0.904546,3.23465,9.21423,7.02138,4.016,-2.69369,48.9683,7,0,0,0
0,1405716277,347370,-10.2851,20.2008,-27.2252,35.4269,-8.75517,-0.782563,3.16318,9.3419,7.67618,4.36938,-3.32301,48.8983,8,0,0,0
0,1405716278,348375,-8.58302,18.6174,-27.7342,34.4886,-8.65784,-0.975433,3.18862,9.27777,6.03975,4.76696,-2.28501,48.9449,8,0,0,0
0,1405716279,349380,-8.21225,20.7495,-28.4475,36.1558,-8.76305,-0.711648,3.2588,9.37642,4.21845,5.85902,-2.92404,48.9881,8,0,0,0
0,1405716280,350383,-8.11128,22.1329,-28.8918,37.288,-8.7036,-0.7671,3.38478,9.37005,6.248,5.17347,0.910954,49.0217,7,0,0,0
0,1405716281,351396,-8.16567,17.9921,-28.8892,34.9997,-9.04368,-0.560145,3.22759,9.61869,4.40269,3.11518,-3.8174,49.0087,6,0,0,0
0,1405716282,352405,-5.471,18.8526,-29.2343,35.2136,-8.50263,-0.775692,3.25762,9.1383,-0.390748,4.54021,-3.11591,48.8872,7,0,0,0
0,1405716283,353408,-9.44228,15.796,-28.7839,34.1641,-8.43472,-0.948591,3.30603,9.10902,2.60395,4.60016,-0.778105,48.9371,7,0,0,0
0,1405716284,354416,-7.46488,18.9789,-27.1409,33.9492,-8.67012,-0.705971,3.02602,9.21011,0.708101,6.1247,-3.11421,48.9138,7,0,0,0
0,1405716285,355424,-3.73443,15.5333,-27.415,31.7303,-8.92354,-0.886357,3.41603,9.59606,2.13232,6.00955,-1.27753,48.9559,8,0,0,0
0,1405716286,356427,-5.6971,19.9089,-27.8167,34.6784,-9.18802,-1.00523,3.16193,9.76873,0.377456,4.11973,-0.282561,48.923,7,0,0,0
0,1405716287,357433,-7.61136,14.8636,-28.3064,32.8651,-8.52493,-0.895969,2.88476,9.04428,1.91889,3.57619,0.191731,48.9517,8,0,0,0
0,1405716288,358434,-9.49057,17.9474,-29.1049,35.4863,-7.96708,-0.956346,2.63044,8.44442,1.14026,5.69545,-0.874132,48.9682,8,0,0,0
0,1405716289,359437,-9.52861,17.1873,-29.5597,35.4961,-8.81021,-0.760434,2.96613,9.32717,2.57948,3.83086,-1.38434,48.9875,6,0,0,0
0,1405716290,360439,-9.58014,14.8336,-29.4129,34.3065,-9.04753,-0.686061,2.85663,9.51256,4.94072,4.26917,-3.94873,48.9083,7,0,0,0
0,1405716291,361445,-9.40944,14.2088,-29.2879,33.8852,-9.02261,-0.751143,2.83124,9.48618,4.87606,5.01098,-2.06329,48.8903,6,0,0,0
0,1405716292,362454,-9.4259,16.2131,-30.3458,35.6733,-8.82489,-0.709709,3.11151,9.38423,0.864275,5.11594,-2.05632,48.9788,7,0,0,0
0,1405716293,363459,-9.46803,16.1517,-30.0963,35.4444,-8.87988,-0.742511,3.00832,9.40498,2.09531,4.54187,-1.6512,48.9932,7,0,0,0
0,1405716294,364467,-9.31575,16.469,-30.1476,35.5934,-8.72979,-0.821599,3.28676,9.36414,2.65249,4.48686,-0.962192,49.0856,8,0,0,0
0,1405716295,365473,-8.97863,16.9221,-30.3951,35.9282,-8.74458,-0.851149,3.18308,9.34474,3.39951,5.20937,-2.22986,48.971,7,0,0,0
0,1405716296,366479,-9.02555,16.0854,-30.1042,35.3053,-8.74618,-0.824203,3.21928,9.35621,1.27186,5.06267,-1.89333,48.8813,8,0,0,0
0,1405716297,367482,-9.43342,16.1282,-30.0684,35.4008,-8.76994,-0.827184,3.20444,9.37361,1.90729,4.27956,-1.27877,49.0307,7,0,0,0
0,1405716298,368491,-9.43491,16.459,-30.0897,35.5711,-8.76722,-0.839315,3.22671,9.37978,2.82057,4.9086,-1.36849,48.9653,6,0,0,0
0,1405716299,369495,-9.10706,17.0452,-30.2122,35.8644,-8.76964,-0.816765,3.20985,9.37426,2.80647,5.06406,-3.4179,49.0042,6,0,0,0
0,1405716300,370496,-9.54073,16.0135,-30.4581,35.7093,-8.79377,-0.787039,3.22994,9.40119,3.17699,5.32318,-1.40312,49.054,7,0,0,0
0,1405716301,371507,-9.11153,16.5664,-30.5314,35.9115,-8.75698,-0.824247,3.23401,9.37139,2.66185,4.53889,-1.65174,49.0587,8,0,0,0
0,1405716302,372513,-9.04794,16.091,-30.2376,35.4274,-8.76305,-0.800452,3.24135,9.37753,2.79623,4.92865,-2.72964,49.0379,7,0,0,0
0,1405716303,373521,-9.2106,16.1643,-30.3018,35.5572,-8.75421,-0.846956,3.18776,9.35496,2.2472,3.65217,-0.785238,49.0096,7,0,0,0
0,1405716304,374524,-9.20666,16.1718,-30.4029,35.6458,-8.78058,-0.820201,3.19437,9.37951,3.39807,4.48634,-2.07239,48.8909,7,0,0,0
0,1405716305,375533,-8.90986,16.7005,-30.1329,35.5848,-8.78395,-0.81864,3.21386,9.38919,1.63215,5.61075,-1.11923,49.0402,8,0,0,0
0,1405716306,376534,-9.28195,16.4541,-30.3338,35.7355,-8.78498,-0.850996,3.22038,9.39526,2.36475,5.05547,-2.01446,48.9243,8,0,0,0
0,1405716307,377541,-9.22104,15.971,-30.3762,35.5361,-8.76168,-0.82507,3.24146,9.37842,1.41512,4.34538,-1.80553,49.0455,8,0,0,0
0,1405716308,378551,-9.16266,16.1186,-30.4141,35.62,-8.74866,-0.838394,3.21661,9.35888,2.49686,4.639,-1.5198,48.9784,7,0,0,0
0,1405716309,379559,-9.14122,16.7127,-30.2254,35.7274,-8.77779,-0.793548,3.23191,9.38747,1.71702,4.00967,-0.187154,49.047,8,0,0,0
0,1405716310,380560,-8.56744,16.7505,-30.27,35.6406,-8.80457,-0.802072,3.23087,9.41288,1.53037,3.68801,-2.9026,48.9503,7,0,0,0
0,1405716312,382070,-8.89616,16.1755,-30.3074,35.487,-8.78081,-0.807481,3.22321,9.38849,3.75022,5.10852,-0.803338,48.9489,4,0,0,0
0,1405716313,383074,-9.22693,16.3696,-30.4177,35.7539,-8.77264,-0.824558,3.20921,9.37753,3.63732,4.59714,-0.918441,48.9589,7,0,0,0
0,1405716314,384078,-9.1061,16.2749,-30.4256,35.6862,-8.78623,-0.794687,3.23717,9.39726,2.74631,5.07952,-2.4052,48.9372,6,0,0,0
0,1405716315,385081,-9.2169,16.0321,-30.0394,35.2752,-8.77404,-0.804374,3.21392,9.3787,2.91956,4.43382,-1.93347,48.9984,7,0,0,0
0,1405716316,386090,-9.11133,16.8607,-30.3385,35.8848,-8.78433,-0.847397,3.2092,9.3905,2.85963,4.38662,-2.54803,48.9842,7,0,0,0
0,1405716317,387098,-8.9839,16.4779,-29.874,35.2801,-8.7712,-0.826682,3.21229,9.37743,1.0291,5.44113,-2.67052,48.9403,7,0,0,0
0,1405716318,388103,-9.1586,16.4494,-30.3706,35.7329,-8.74636,-0.829446,3.22993,9.36052,2.78011,3.92656,-0.52283,48.8955,7,0,0,0
0,1405716319,389105,-8.79771,16.5521,-30.1269,35.4824,-8.76295,-0.842169,3.26564,9.38951,2.03067,4.45022,-1.98446,48.8597,8,0,0,0
0,1405716320,390109,-8.82832,16.7638,-30.6175,36.0055,-8.77218,-0.839861,3.24755,9.39165,1.57979,4.49204,-1.27765,48.9273,8,0,0,0
0,1405716321,391113,-8.94867,15.8855,-30.7927,35.7857,-8.77349,-0.828199,3.20295,9.37651,3.00484,5.48334,-1.9535,48.8918,7,0,0,0
0,1405716322,392121,-8.72614,16.7298,-30.5988,35.9488,-8.78947,-0.81877,3.20083,9.38991,2.77937,3.70562,-1.31503,48.9086,8,0,0,0
0,1405716323,393127,-8.85244,16.1619,-30.3176,35.4786,-8.78247,-0.83707,3.21183,9.38873,2.77979,4.96714,-1.05894,48.8911,6,0,0,0
0,1405716324,394135,-9.10648,16.6726,-30.0949,35.5894,-8.77061,-0.841489,3.27659,9.40041,3.17749,5.06905,-2.15231,48.9422,7,0,0,0
0,1405716325,395137,-8.97407,16.8213,-30.13,35.6554,-8.75786,-0.823907,3.21897,9.367,2.03157,4.13872,-0.724501,48.9404,8,0,0,0
0,1405716326,396144,-9.2259,16.1079,-30.4329,35.6475,-8.79739,-0.818169,3.22582,9.40582,2.70029,5.46887,-0.895572,48.9765,8,0,0,0
0,1405716327,397148,-8.7163,16.703,-30.3874,35.7542,-8.75938,-0.829277,3.24725,9.37865,3.20501,5.23969,-2.89589,49.0579,7,0,0,0
0,1405716328,398152,-8.93319,16.3141,-30.3799,35.6215,-8.77302,-0.837656,3.22328,9.38387,3.57926,5.17149,-0.488896,49.0631,7,0,0,0
0,1405716329,399155,-8.83497,16.4581,-30.4968,35.7628,-8.77484,-0.815262,3.23524,9.38772,1.82671,3.24906,-2.62878,48.9875,7,0,0,0
0,1405716330,400163,-9.086,16.4746,-30.1937,35.5756,-8.78022,-0.82482,3.22206,9.38905,4.17319,3.15687,-0.586851,49.0788,8,0,0,0
0,1405716331,401172,-8.79158,16.7097,-30.3297,35.7267,-8.74587,-0.811719,3.24181,9.36261,1.42419,4.81677,-2.24917,48.9549,7,0,0,0
0,1405716332,402180,-9.23443,16.4694,-30.4588,35.8364,-8.77821,-0.815836,3.2079,9.38153,1.79457,4.2203,-0.755336,49.0753,7,0,0,0
0,1405716333,403187,-8.93639,16.4509,-30.9366,36.1603,-8.76565,-0.799803,3.2232,9.37365,2.45,4.49384,-1.62917,49.0492,7,0,0,0
0,1405716334,404188,-8.86519,16.8288,-30.4681,35.918,-8.77166,-0.842978,3.23921,9.38857,2.77362,5.26213,-0.51924,49.0303,7,0,0,0
0,1405716335,405193,-9.16098,16.4319,-30.49,35.8269,-8.76054,-0.81692,3.23095,9.37302,2.04507,4.85841,-2.45943,48.9237,7,0,0,0
0,1405716336,406198,-8.83158,16.0012,-30.424,35.4916,-8.75646,-0.821155,3.21311,9.36343,2.93347,5.41434,-1.25223,48.9363,7,0,0,0
0,1405716337,407210,-9.16862,16.5246,-30.6338,35.9938,-8.76116,-0.820359,3.23433,9.37506,1.3489,5.33314,-2.11068,49.0002,7,0,0,0
0,1405716338,408211,-9.35986,15.9951,-30.0964,35.3447,-8.78769,-0.823314,3.21065,9.392,2.18019,4.0848,-2.28291,49.0614,8,0,0,0
0,1405716339,409220,-9.15202,16.4392,-30.2753,35.6455,-8.77587,-0.818305,3.21551,9.38217,1.70945,3.85963,-1.30246,48.9641,6,0,0,0
0,1405716340,410225,-9.15439,15.6533,-30.1922,35.2193,-8.78254,-0.841301,3.22887,9.39502,1.82328,4.24682,-0.726111,49.0011,7,0,0,0
0,1405716341,411233,-9.03422,16.2354,-30.3305,35.5689,-8.76189,-0.845036,3.24249,9.38075,2.98783,4.63231,-1.48355,48.8295,7,0,0,0
0,1405716342,412244,-9.10363,16.5102,-30.2417,35.6374,-8.76401,-0.81937,3.20774,9.3685,2.71364,5.22424,-0.570247,48.965,8,0,0,0
0,1405716343,413245,-9.17857,16.4795,-30.3196,35.7085,-8.77597,-0.796264,3.22258,9.38279,1.39307,5.59481,-0.445912,48.978,8,0,0,0
0,1405716344,414252,-8.89305,16.6581,-30.2786,35.6844,-8.76361,-0.821512,3.21316,9.37017,2.72405,3.68509,-0.903521,49.0149,8,0,0,0
0,1405716345,415254,-9.14378,16.5657,-30.517,35.9071,-8.76141,-0.81251,3.20288,9.36381,2.65418,3.69249,0.0714793,48.9253,8,0,0,0
0,1405716346,416257,-9.2214,16.2214,-30.6154,35.8535,-8.77514,-0.838897,3.21255,9.38228,2.25049,5.40058,-1.13993,49.0464,7,0,0,0
0,1405716347,417260,-9.39774,16.3186,-30.2673,35.6472,-8.76797,-0.808822,3.1692,9.35817,2.47768,4.53746,-1.95918,48.9267,9,0,0,0
0,1405716348,418266,-8.93671,16.5945,-30.4387,35.8016,-8.78835,-0.816191,3.25661,9.4078,1.8254,4.99407,-1.80235,49.0026,7,0,0,0
0,1405716349,419278,-8.91183,16.528,-30.4167,35.7459,-8.75684,-0.825794,3.24883,9.37652,3.24146,5.38504,-0.643377,48.8953,7,0,0,0
0,1405716350,420282,-8.91774,16.6545,-29.9596,35.4186,-8.77483,-0.840648,3.23406,9.38954,3.30989,4.87767,-1.77472,48.9301,7,0,0,0
0,1405716351,421286,-9.05268,16.5888,-30.4457,35.834,-8.75851,-0.836841,3.2094,9.36547,3.50455,3.95899,-2.41843,49.0102,7,0,0,0
0,1405716352,422287,-9.24868,16.2383,-29.9767,35.3245,-8.7715,-0.812475,3.24643,9.38822,1.66131,4.2546,-1.42883,49.0254,8,0,0,0
0,1405716353,423288,-9.15808,16.2729,-30.512,35.7723,-8.76126,-0.84433,3.22539,9.3742,2.53307,4.07269,-2.8766,48.9295,7,0,0,0
0,1405716354,424294,-9.67099,15.8844,-30.288,35.5416,-8.76554,-0.834725,3.22169,9.37608,2.05275,5.61217,-1.27401,48.996,8,0,0,0
0,1405716355,425295,-8.90951,16.8014,-30.0028,35.5223,-8.78359,-0.827902,3.22488,9.39344,1.91554,5.23918,-0.5872,49.0139,8,0,0,0
0,1405716356,426309,-9.29712,16.1259,-30.5793,35.7991,-8.78551,-0.821208,3.23575,9.39839,3.20092,5.06428,-0.995453,48.9674,7,0,0,0
0,1405716357,427317,-9.20338,16.4012,-30.0039,35.411,-8.78836,-0.825928,3.21422,9.39408,2.50537,4.54386,-1.02519,49.068,7,0,0,0
0,1405716358,428325,-8.99576,16.6562,-29.9102,35.3974,-8.76921,-0.819268,3.22899,9.38065,1.10148,4.55909,-1.08464,49.0265,7,0,0,0
0,1405716359,429333,-9.33152,16.1421,-30.0784,35.3887,-8.77842,-0.813833,3.23124,9.38957,2.25922,4.23078,-2.22146,48.9145,7,0,0,0
0,1405716360,430338,-9.33972,16.0541,-30.2317,35.4813,-8.76883,-0.838754,3.21863,9.37845,3.3854,4.26086,-2.26163,49.0048,7,0,0,0
0,1405716361,431348,-9.27543,16.5419,-30.1696,35.6353,-8.74929,-0.848082,3.23379,9.36625,1.88849,3.64272,-0.996462,48.8836,6,0,0,0
0,1405716362,432351,-9.51011,15.975,-30.4927,35.7134,-8.75198,-0.826772,3.21252,9.35954,0.559397,4.47665,-2.0728,49.0461,5,0,0,0
0,1405716363,433361,-9.45166,15.8032,-30.4769,35.6078,-8.77019,-0.789654,3.23607,9.38146,2.26192,4.88959,-1.10471,48.9785,7,0,0,0
0,1405716364,434368,-9.3736,16.0999,-30.2865,35.5576,-8.75884,-0.814925,3.20854,9.36355,1.54377,4.47459,-1.58911,49.0742,6,0,0,0
0,1405716365,435374,-8.91045,16.4475,-30.0486,35.3954,-8.78013,-0.830182,3.2328,9.39313,3.2709,4.93478,-1.55205,48.9482,9,0,0,0
0,1405716366,436376,-9.07373,16.5178,-30.2012,35.5989,-8.76364,-0.824759,3.25218,9.38394,3.52681,5.61627,-0.121958,48.9526,7,0,0,0
0,1405716367,437384,-9.16028,16.6266,-30.4149,35.8527,-8.76644,-0.823134,3.23039,9.37888,2.30919,4.73616,-0.357408,48.9448,6,0,0,0
0,1405716368,438386,-9.13533,16.4834,-30.2713,35.6582,-8.7925,-0.840243,3.22362,9.40243,1.70215,4.75981,-0.676048,48.9605,8,0,0,0
0,1405716369,439394,-9.32713,16.2827,-30.4038,35.7283,-8.78129,-0.806719,3.23288,9.39219,2.45605,3.99076,-0.493303,48.9456,7,0,0,0
0,1405716370,440399,-9.40782,16.4344,-30.1347,35.5907,-8.76606,-0.821379,3.227,9.37721,2.90042,4.01703,-0.615512,48.9149,8,0,0,0
0,1405716371,441401,-8.93134,16.6628,-30.1841,35.6159,-8.75211,-0.837812,3.21318,9.36087,2.37027,4.74417,-2.16212,48.9501,8,0,0,0
0,1405716372,442408,-9.39346,16.2016,-30.3837,35.6917,-8.75459,-0.819625,3.20162,9.35762,2.38703,4.7719,-1.31655,48.9396,8,0,0,0
0,1405716373,443416,-9.31315,16.4209,-30.4457,35.8235,-8.75912,-0.816331,3.22691,9.37025,2.70181,5.32874,-0.725992,48.9725,8,0,0,0
0,1405716374,444423,-9.31593,16.2095,-30.2111,35.528,-8.76668,-0.825765,3.18795,9.36481,1.45124,5.11026,-0.713183,48.9261,7,0,0,0
0,1405716375,445424,-8.99501,16.6059,-30.147,35.574,-8.77,-0.822159,3.18843,9.36776,3.497,4.09077,-1.36038,48.9782,7,0,0,0
0,1405716376,446431,-8.87263,16.9178,-30.3871,35.893,-8.77792,-0.806573,3.22043,9.38475,2.37421,5.62017,-1.23978,49.0564,7,0,0,0
0,1405716377,447436,-9.35787,15.9072,-30.5712,35.7101,-8.75276,-0.835468,3.21758,9.36278,2.54527,3.91871,-1.89069,48.9691,8,0,0,0
0,1405716378,448440,-9.19758,16.2744,-30.2273,35.5407,-8.76936,-0.845678,3.24938,9.39017,1.48524,5.84402,-2.11289,49.0652,7,0,0,0
0,1405716379,449453,-9.04391,16.8475,-30.0092,35.5835,-8.7678,-0.810289,3.2664,9.3915,3.79029,5.02555,-1.52447,49.0694,8,0,0,0
0,1405716380,450460,-9.47036,16.0218,-30.4072,35.6508,-8.77396,-0.850482,3.22863,9.38774,2.23295,5.3901,-1.67253,49.0391,8,0,0,0
0,1405716381,451463,-9.29179,16.365,-30.2349,35.6132,-8.76401,-0.822022,3.20268,9.367,1.58052,4.71176,-0.95662,48.9687,7,0,0,0
0,1405716382,452474,-8.94266,16.9845,-30.362,35.9207,-8.75779,-0.835119,3.19593,9.36004,2.99638,5.12567,-0.0945228,48.9711,8,0,0,0
0,1405716383,453476,-9.62296,16.1931,-30.3051,35.6821,-8.78,-0.832954,3.18976,9.37853,3.18551,5.53929,-1.89022,48.9617,7,0,0,0
0,1405716384,454482,-9.47976,16.2277,-30.516,35.839,-8.77164,-0.843505,3.21509,9.38029,4.25471,4.92209,-1.57489,48.9406,8,0,0,0
0,1405716385,455485,-9.59435,16.2698,-30.158,35.5846,-8.77998,-0.825377,3.21456,9.38631,2.10402,4.64358,-1.88325,49.0056,6,0,0,0
0,1405716386,456498,-9.01331,16.1405,-30.5255,35.687,-8.77491,-0.803845,3.23156,9.38553,2.64812,5.30936,-2.12782,48.9215,8,0,0,0
0,1405716387,457503,-9.38978,16.0599,-30.1362,35.4158,-8.75248,-0.844541,3.2403,9.37116,1.80015,3.53219,-2.11197,48.9107,7,0,0,0
0,1405716388,458511,-9.08398,16.3321,-30.3297,35.6251,-8.78553,-0.814812,3.22293,9.39344,2.54184,4.98792,-1.83006,48.9404,7,0,0,0
0,1405716389,459516,-9.5232,16.2267,-30.1931,35.5756,-8.77788,-0.823955,3.24305,9.39401,2.73063,4.10384,-1.6025,48.9476,7,0,0,0
0,1405716390,460517,-9.21115,16.3775,-30.491,35.8158,-8.77432,-0.834145,3.19302,9.37443,1.34516,4.331,-1.77209,48.9791,7,0,0,0
0,1405716391,461520,-9.53095,15.9177,-30.6595,35.836,-8.75766,-0.817186,3.2295,9.36985,2.26719,4.79868,-0.760784,48.9991,7,0,0,0
0,1405716392,462528,-8.98628,16.4916,-30.2716,35.6244,-8.74971,-0.806168,3.22202,9.35889,1.25422,4.36682,-0.95851,49.0512,7,0,0,0
0,1405716393,463530,-9.13825,16.5058,-30.5529,35.9087,-8.7641,-0.831244,3.23078,9.37754,1.515,4.44886,-1.44413,49.0415,8,0,0,0
0,1405716394,464531,-9.07728,16.1572,-30.6057,35.7793,-8.79129,-0.849414,3.19992,9.39403,2.81479,5.32046,-0.231152,48.9644,7,0,0,0
0,1405716395,465541,-8.79187,16.7708,-30.0874,35.5501,-8.78044,-0.833271,3.20681,9.38478,2.34163,4.84723,-0.223155,48.996,7,0,0,0
0,1405716396,466542,-9.35823,16.4933,-30.105,35.5797,-8.75779,-0.863911,3.22801,9.37365,1.22554,5.4499,-1.70265,49.02,8,0,0,0
0,1405716397,467545,-9.39184,16.3781,-30.4421,35.8214,-8.77709,-0.848549,3.22832,9.39039,1.52853,3.86599,-1.02692,49.0367,7,0,0,0
0,1405716398,468549,-9.17794,16.6745,-30.1512,35.6562,-8.77244,-0.831574,3.21876,9.38124,2.2707,4.06734,-1.27431,49.0069,8,0,0,0
0,1405716399,469557,-9.17595,16.6582,-30.2596,35.7399,-8.77999,-0.815584,3.23999,9.39419,3.7329,4.73163,-2.56632,48.9975,7,0,0,0
0,1405716400,470566,-8.88979,16.4816,-30.1153,35.4627,-8.7663,-0.844715,3.21741,9.3762,3.58798,3.80899,-2.59279,49.072,7,0,0,0
0,1405716401,471574,-9.05357,16.3386,-30.4701,35.7399,-8.76139,-0.820364,3.22465,9.37194,2.18815,3.20466,-0.186719,49.0099,8,0,0,0
0,1405716402,472577,-9.19862,16.1919,-30.6976,35.9045,-8.76555,-0.830088,3.19242,9.36565,3.10493,5.99916,-0.73399,49.055,7,0,0,0
0,1405716403,473584,-9.03486,16.6459,-30.5712,35.9626,-8.7526,-0.865714,3.21602,9.36485,0.612151,4.38078,-1.98914,48.9967,8,0,0,0
0,1405716404,474592,-8.81453,16.701,-30.1485,35.5746,-8.75147,-0.806265,3.21401,9.35779,1.85992,4.7303,-1.34812,48.9098,6,0,0,0
0,1405716405,475593,-9.19513,16.0857,-30.3896,35.5926,-8.77767,-0.823347,3.21897,9.38547,2.18753,5.26658,-3.02681,48.9877,7,0,0,0
0,1405716406,476600,-9.39041,16.351,-30.5262,35.8802,-8.75064,-0.815316,3.19922,9.35272,2.05298,5.48964,-1.86492,48.9754,6,0,0,0
0,1405716407,477606,-9.1254,16.6044,-30.3492,35.7778,-8.76423,-0.863064,3.21456,9.37497,3.47225,4.06278,-1.3191,49.1375,7,0,0,0
0,1405716408,478616,-9.46588,15.9474,-29.94,35.2183,-8.76985,-0.837836,3.2059,9.37497,3.21246,4.92883,-2.36966,49.0836,7,0,0,0
0,1405716409,479622,-9.33824,16.5084,-30.407,35.8373,-8.75287,-0.83191,3.22526,9.36521,2.39791,5.41948,-2.62761,49.0513,6,0,0,0
0,1405716410,480630,-9.16178,16.2994,-30.5182,35.7906,-8.77294,-0.858189,3.2258,9.38652,1.96923,5.29339,-1.72973,49.0269,7,0,0,0
0,1405716411,481631,-9.10488,16.2274,-30.5312,35.7544,-8.77527,-0.801442,3.2347,9.38675,2.04011,4.96222,-1.55972,49.0214,6,0,0,0
0,1405716412,482637,-8.98231,16.6775,-30.1766,35.6293,-8.81644,-0.813442,3.21343,9.419,1.73585,4.59424,-2.50174,49.0553,6,0,0,0
0,1405716413,483638,-9.20641,16.1696,-30.29,35.5485,-8.78213,-0.804982,3.21541,9.38684,2.62229,4.57059,-0.922744,49.0289,7,0,0,0
0,1405716414,484641,-8.92051,16.3012,-30.6516,35.8445,-8.75898,-0.833468,3.21811,9.36859,3.62544,4.87576,-0.476962,49.0459,7,0,0,0
0,1405716415,485642,-9.39241,16.0711,-30.6681,35.8752,-8.78447,-0.817896,3.26695,9.40791,2.12096,4.54117,-0.824845,49.0631,8,0,0,0
0,1405716416,486646,-9.24932,15.8713,-30.6259,35.7126,-8.7635,-0.800508,3.20686,9.3661,1.47746,4.62009,-2.8245,49.0676,8,0,0,0
0,1405716417,487657,-9.07115,16.6335,-30.0985,35.5652,-8.77832,-0.818215,3.23333,9.39057,3.55049,5.08272,-0.79396,49.019,8,0,0,0
0,1405716418,488658,-8.99366,16.9449,-30.2502,35.8202,-8.78802,-0.775404,3.2383,9.39772,2.85181,4.72739,-0.634581,49.0543,6,0,0,0
0,1405716419,489664,-8.99928,16.9441,-30.9139,36.3835,-8.76105,-0.822162,3.22641,9.37239,2.97806,4.25641,-0.838976,49.0678,7,0,0,0
0,1405716420,490667,-9.23071,16.0569,-30.1393,35.3753,-8.77877,-0.843709,3.27076,9.40619,2.10002,5.76754,-2.92812,49.0042,7,0,0,0
0,1405716421,491673,-9.00761,16.7306,-30.31,35.7735,-8.78194,-0.807245,3.23782,9.39455,3.3365,4.35495,-2.59517,49.0792,8,0,0,0
0,1405716422,492679,-8.96647,16.6487,-30.2012,35.6327,-8.74489,-0.841112,3.24778,9.36636,2.55931,4.20009,-1.23427,49.0499,8,0,0,0
0,1405716423,493697,-9.30557,16.3736,-30.3325,35.7037,-8.77806,-0.81946,3.22599,9.38791,3.35977,3.40808,-2.98816,49.0499,6,0,0,0
0,1405716424,494703,-8.99771,16.6919,-30.1072,35.5812,-8.76569,-0.859266,3.22417,9.37929,2.6919,4.25403,-1.5426,49.042,8,0,0,0
0,1405716425,495704,-9.27859,16.2741,-29.7459,35.1533,-8.79137,-0.830109,3.26055,9.41321,2.55922,4.20173,-0.857729,48.9488,8,0,0,0
0,1405716426,496709,-9.26859,16.296,-30.2488,35.5873,-8.75681,-0.824362,3.19897,9.35921,0.543544,4.74249,-1.01183,49.0152,8,0,0,0
0,1405716427,497716,-9.23925,16.3007,-30.6609,35.9328,-8.74114,-0.877045,3.24382,9.36478,2.89549,5.41876,-1.91153,49.0129,7,0,0,0
0,1405716428,498717,-9.1335,16.3416,-30.5378,35.8193,-8.76701,-0.876759,3.24701,9.39001,1.75744,5.06035,-0.978709,49.0866,7,0,0,0
0,1405716429,499724,-8.91939,16.5972,-30.2934,35.6751,-8.7796,-0.821626,3.17843,9.37331,1.56299,4.63667,-1.26031,49.0425,8,0,0,0
0,1405716430,500725,-9.15922,16.5644,-30.3867,35.7997,-8.75755,-0.859775,3.20777,9.3661,2.54468,4.28336,-0.61044,49.0603,8,0,0,0
0,1405716431,501729,-9.10176,16.4947,-30.0092,35.4326,-8.77722,-0.823427,3.2087,9.38154,2.64176,4.04047,-0.773279,49.0475,7,0,0,0
0,1405716432,502732,-8.98712,16.393,-29.9604,35.3147,-8.78269,-0.87268,3.21048,9.39172,2.8891,4.97141,-1.41483,49.1322,7,0,0,0
0,1405716433,503738,-9.21794,16.2256,-30.3359,35.6161,-8.78332,-0.856762,3.19851,9.38676,2.44563,5.843,-1.32884,49.1039,7,0,0,0
0,1405716434,504746,-9.28394,16.0322,-30.2021,35.4315,-8.75353,-0.820464,3.21655,9.36182,1.88479,4.01057,-2.39478,49.0985,7,0,0,0
0,1405716435,505753,-8.8908,16.6699,-30.2268,35.6454,-8.76977,-0.780554,3.21014,9.3714,1.98084,5.08188,-2.41615,48.9726,8,0,0,0
0,1405716436,506759,-9.17312,16.2514,-30.2827,35.571,-8.7751,-0.830104,3.20853,9.38009,3.08225,4.45674,-2.207,49.035,8,0,0,0
0,1405716437,507762,-9.12079,16.3029,-30.35,35.6384,-8.75687,-0.812447,3.25191,9.37644,2.14668,5.19525,-0.955502,49.0289,8,0,0,0
0,1405716438,508764,-9.52985,16.1136,-30.3246,35.6377,-8.75651,-0.828297,3.19977,9.35955,3.05529,4.87121,-0.753857,49.0201,7,0,0,0
0,1405716439,509770,-9.16775,16.2271,-30.6014,35.8303,-8.80099,-0.809998,3.2115,9.40358,0.851398,5.37084,-0.950231,49.0384,8,0,0,0
0,1405716440,510779,-9.37023,16.0222,-30.1677,35.4204,-8.76982,-0.881765,3.2362,9.38937,3.1014,4.39862,-1.1314,49.034,8,0,0,0
0,1405716441,511783,-9.05249,16.2075,-30.0364,35.3102,-8.78771,-0.83139,3.20885,9.39211,2.14554,4.76706,-2.19778,48.8123,8,0,0,0
0,1405716442,512801,-9.09868,16.3052,-30.0017,35.3376,-8.76598,-0.838738,3.21173,9.37343,1.15418,5.28918,-1.35093,49.1014,6,0,0,0
0,1405716443,513809,-9.28058,16.344,-29.8712,35.2923,-8.76945,-0.819632,3.23863,9.38423,3.33092,3.75338,-0.759459,49.1301,4,0,0,0
0,1405716444,514813,-9.27858,16.3224,-29.9734,35.3683,-8.79233,-0.822588,3.2377,9.40555,3.15056,4.02088,-1.88522,48.9907,11,0,0,0
0,1405716445,515814,-9.59892,16.2788,-29.6702,35.1776,-8.74557,-0.78594,3.22289,9.35359,3.16043,4.25524,-1.25936,48.9897,13,0,0,0
0,1405716446,516819,-9.17288,16.5027,-29.7983,35.2764,-8.75628,-0.84962,3.2142,9.36618,2.50316,5.24468,-0.618183,48.8516,10,0,0,0
0,1405716447,517820,-9.41614,16.0619,-30.28,35.5461,-8.75881,-0.80585,3.20359,9.36105,2.32341,4.21057,-3.39175,48.9708,12,0,0,0
0,1405716448,518822,-9.47532,16.2308,-30.6362,35.9416,-8.80558,-0.813708,3.24387,9.4193,1.89733,4.96073,0.0133135,49.083,11,0,0,0
0,1405716449,519823,-9.2109,16.5397,-29.9328,35.4172,-8.77108,-0.82759,3.24116,9.38732,3.12171,5.1631,-0.833372,49.1068,12,0,0,0
0,1405716450,520825,-9.11538,16.638,-30.2031,35.6671,-8.75715,-0.80993,3.21866,9.36501,2.34683,4.74516,-1.92612,49.1057,9,0,0,0
0,1405716451,521826,-9.56224,15.8422,-30.5376,35.7065,-8.77707,-0.818657,3.23579,9.39029,3.04933,4.78962,-1.62367,48.9849,10,0,0,0
0,1405716452,522832,-9.57922,16.1073,-30.0439,35.4096,-8.78467,-0.809651,3.21528,9.38957,2.23851,4.9607,-1.15917,49.0819,6,0,0,0
0,1405716453,523837,-8.94101,15.8516,-29.8774,34.9839,-8.78668,-0.799643,3.21773,9.39143,2.99927,4.3386,-1.6332,49.0172,13,0,0,0
0,1405716454,524842,-9.40902,16.158,-30.4336,35.7186,-8.77605,-0.806932,3.27138,9.40065,3.08613,4.49222,-2.47363,49.0328,11,0,0,0
0,1405716455,525843,-9.05399,16.5833,-30.1022,35.5405,-8.7874,-0.832714,3.30117,9.42388,2.5219,3.89404,-1.99341,49.1249,10,0,0,0
0,1405716456,526846,-9.06861,16.2775,-30.0623,35.3686,-8.7583,-0.824909,3.24566,9.37671,1.9935,4.12116,-2.67612,49.0624,11,0,0,0
0,1405716457,527849,-8.87582,16.5259,-30.0809,35.4506,-8.77612,-0.785098,3.21344,9.37886,1.80886,4.44596,-1.27022,48.9782,11,0,0,0
0,1405716458,528855,-8.89269,16.7398,-29.7788,35.2998,-8.78547,-0.763938,3.22061,9.38831,2.13285,4.62549,-0.425861,49.137,11,0,0,0
0,1405716459,529857,-9.6014,15.8522,-29.7468,35.0478,-8.77177,-0.831897,3.22825,9.3839,1.89713,4.49733,-1.04429,48.9677,11,0,0,0
0,1405716460,530861,-9.42355,16.4152,-30.0489,35.5134,-8.76138,-0.872985,3.20258,9.36911,3.33353,4.09397,-0.677965,49.1367,12,0,0,0
0,1405716461,531863,-9.3982,16.2569,-30.3338,35.6756,-8.74615,-0.842675,3.24547,9.36687,3.22595,4.22355,-2.08806,48.9177,11,0,0,0
0,1405716462,532868,-9.02954,16.243,-30.2832,35.5309,-8.7933,-0.791997,3.20405,9.3923,2.24092,6.35002,-2.00913,49.0464,12,0,0,0
0,1405716463,533871,-9.21745,16.3365,-30.4002,35.7214,-8.77783,-0.837838,3.24369,9.39541,2.79443,3.72749,-1.3656,48.9351,11,0,0,0
0,1405716464,534876,-9.39642,16.1979,-29.7865,35.1838,-8.76886,-0.859906,3.20689,9.37638,2.58793,3.78953,-1.72513,48.9398,11,0,0,0
0,1405716465,535881,-8.95941,16.7112,-30.0856,35.5623,-8.75057,-0.828821,3.17421,9.34532,2.40249,3.65099,-1.4981,48.9888,11,0,0,0
0,1405716466,536886,-9.39409,15.9048,-30.5963,35.74,-8.76255,-0.815965,3.24696,9.38034,2.41098,3.83348,-1.74523,49.0593,11,0,0,0
0,1405716467,537887,-9.12185,16.1087,-30.328,35.5315,-8.7588,-0.857459,3.21797,9.37054,2.45425,4.35517,-0.649207,49.0035,11,0,0,0
0,1405716468,538890,-9.01022,16.2184,-30.315,35.5418,-8.76893,-0.849279,3.21423,9.37799,2.31545,4.11356,-2.16599,48.9921,12,0,0,0
0,1405716469,539896,-8.9012,16.6277,-30.1572,35.5692,-8.76047,-0.852171,3.20375,9.36676,2.88885,4.53449,-0.804266,48.9926,11,0,0,0
0,1405716470,540902,-9.39955,16.0724,-30.3957,35.6451,-8.77909,-0.811262,3.20774,9.3819,3.32462,3.44884,-2.49343,49.0384,11,0,0,0
0,1405716471,541903,-8.71408,16.7152,-30.2904,35.6769,-8.75477,-0.847152,3.22754,9.36913,2.96086,3.79343,-1.81571,49.0366,12,0,0,0
0,1405716472,542906,-10.1513,15.4779,-29.6524,34.9554,-8.76762,-0.813919,3.26097,9.38976,2.40144,4.15556,-1.71749,49.0972,11,0,0,0
0,1405716473,543909,-8.37742,15.7072,-30.263,35.1105,-8.71831,-0.884066,3.33811,9.37729,2.38361,6.18759,-2.5491,48.9532,10,0,0,0
0,1405716474,544912,-9.08479,16.4713,-30.3482,35.7051,-8.82107,-0.790511,3.19263,9.4143,1.7397,4.46928,-3.10729,49.0563,11,0,0,0
0,1405716475,545916,-9.26087,16.3417,-30.1798,35.5476,-8.76106,-0.814816,3.26036,9.3835,2.26685,5.1219,-1.18992,49.0384,11,0,0,0
0,1405716476,546919,-9.09426,16.4065,-30.1399,35.5006,-8.78577,-0.817194,3.19256,9.3835,1.92462,4.70809,-0.983965,49.0385,11,0,0,0
0,1405716477,547924,-9.29148,15.9364,-30.2487,35.43,-8.76141,-0.805834,3.24507,9.37775,2.76258,4.53608,-1.16679,48.9403,11,0,0,0
0,1405716478,548925,-9.02049,16.689,-30.1032,35.5822,-8.77465,-0.816138,3.21159,9.37949,2.20247,4.68915,-2.45372,48.9782,11,0,0,0
0,1405716479,549930,-9.31495,15.9467,-30.3937,35.5646,-8.75953,-0.918027,3.22598,9.37972,2.55284,4.8369,-1.1454,48.9935,10,0,0,0
0,1405716480,550931,-9.29661,16.3298,-30.4889,35.8143,-8.82001,-0.817837,3.21357,9.42276,2.60459,4.01194,-1.42829,49.0161,11,0,0,0
0,1405716481,551934,-9.48875,16.1855,-30.3805,35.7069,-8.81266,-0.833932,3.22028,9.41959,2.19517,4.85481,-1.07021,49.1126,11,0,0,0
0,1405716482,552939,-9.14706,16.6081,-29.6984,35.2349,-8.79599,-0.87288,3.24227,9.41508,1.57341,5.30097,-1.09792,49.1021,11,0,0,0
0,1405716483,553944,-9.60852,15.9641,-30.3009,35.5713,-8.7756,-0.864089,3.19803,9.38004,1.93481,4.26924,-1.15437,49.1617,10,0,0,0
0,1405716484,554946,-9.49375,16.4502,-29.9992,35.5062,-8.76903,-0.814986,3.22704,9.37944,2.79998,5.26992,-2.38476,49.0406,11,0,0,0
0,1405716485,555950,-9.34954,16.4795,-29.8799,35.3807,-8.75533,-0.812113,3.26233,9.3786,2.04741,5.16587,-1.68283,49.2063,10,0,0,0
0,1405716486,556954,-9.28782,16.5125,-29.6845,35.215,-8.78632,-0.811478,3.18356,9.38045,1.80216,4.53011,-1.26512,49.0981,11,0,0,0
0,1405716487,557960,-9.39265,16.0721,-30.3046,35.5655,-8.82408,-0.774595,3.27689,9.4447,3.37481,5.4055,-1.84869,49.1942,11,0,0,0
0,1405716488,558964,-9.18935,15.9151,-30.2714,35.4132,-8.76108,-0.843208,3.21418,9.37008,2.51331,4.61617,-2.13862,49.1587,12,0,0,0
0,1405716489,559969,-9.26739,16.4455,-30.3658,35.755,-8.7568,-0.787456,3.21099,9.36013,2.84198,4.82204,-1.08437,49.0953,11,0,0,0
0,1405716490,560974,-9.48759,16.4224,-29.8958,35.4043,-8.75323,-0.878654,3.20099,9.36148,2.99823,4.55068,-1.03302,49.0735,11,0,0,0
0,1405716491,561977,-9.6333,16.2283,-30.0655,35.4978,-8.74575,-0.819233,3.21035,9.3523,1.51372,5.85139,-0.459104,49.057,11,0,0,0
0,1405716492,562981,-9.46704,16.1894,-30.1535,35.51,-8.79709,-0.817663,3.19249,9.39411,2.77507,4.02113,-1.51639,49.0161,11,0,0,0
0,1405716493,563982,-9.05037,16.3313,-29.7223,35.1004,-8.75494,-0.816279,3.19154,9.35421,2.29582,5.41521,-1.158,49.0926,10,0,0,0
0,1405716494,564986,-9.13639,16.2484,-29.8068,35.1558,-8.78874,-0.828887,3.18396,9.38438,2.5745,4.51783,-1.24197,49.1694,11,0,0,0
0,1405716495,565987,-9.41865,16.0229,-29.9881,35.2808,-8.71697,-0.840281,3.24982,9.34093,2.91518,5.04434,-1.50327,49.2293,11,0,0,0
0,1405716496,566991,-9.31425,16.4891,-30.243,35.6831,-8.75805,-0.815277,3.21671,9.36565,2.09206,5.23585,-1.79323,49.1208,11,0,0,0
0,1405716497,567995,-8.92437,16.3416,-30.2956,35.56,-8.77049,-0.82806,3.24735,9.38896,1.96572,5.34141,-0.714562,49.0966,11,0,0,0
0,1405716499,569001,-8.9735,16.5773,-30.0491,35.4722,-8.72644,-0.817844,3.23013,9.34095,1.42079,4.41771,-2.27471,49.1433,11,0,0,0
0,1405716500,570005,-9.32598,16.5588,-30.3676,35.824,-8.77606,-0.839832,3.20871,9.38192,2.04462,5.4542,-1.56571,49.1368,11,0,0,0
0,1405716501,571007,-9.36784,16.1119,-30.2583,35.5375,-8.77,-0.799928,3.21945,9.37644,2.92837,4.10657,-0.643303,49.1905,11,0,0,0
0,1405716502,572008,-9.49795,16.2594,-30.1194,35.5212,-8.7281,-0.81826,3.22678,9.34138,2.01823,4.43288,-1.35336,49.1653,10,0,0,0
0,1405716503,573010,-9.24523,16.1548,-30.0192,35.3214,-8.76497,-0.805037,3.22016,9.37242,1.92175,4.75511,-1.32283,49.1524,11,0,0,0
0,1405716504,574015,-9.11851,16.1431,-30.2698,35.4966,-8.73536,-0.87644,3.23983,9.35794,2.35104,4.63055,-2.08958,49.1982,11,0,0,0
0,1405716505,575018,-9.22087,16.3123,-29.9999,35.371,-8.77364,-0.850317,3.249,9.39446,2.80603,4.47275,-1.16567,49.2148,11,0,0,0
0,1405716506,576021,-9.55017,16.3959,-29.7498,35.2857,-8.83111,-0.78479,3.24627,9.44153,1.70218,4.02283,-1.52669,49.1495,11,0,0,0
0,1405716507,577025,-9.11923,16.4471,-30.4847,35.8188,-8.73844,-0.843752,3.19659,9.34293,3.13558,5.90782,-1.58187,49.2115,10,0,0,0
0,1405716508,578030,-9.25346,16.6816,-29.8159,35.3962,-8.73858,-0.867534,3.22244,9.35412,1.93846,4.86558,-1.61096,49.2299,11,0,0,0
0,1405716509,579032,-9.37819,15.9014,-30.4236,35.5865,-8.75616,-0.818156,3.20844,9.36129,2.51573,3.27272,-0.527793,49.1849,11,0,0,0
0,1405716510,580034,-8.97959,16.3526,-30.5757,35.8178,-8.77899,-0.851298,3.17584,9.3745,1.83365,4.9068,-1.25199,49.2107,10,0,0,0
0,1405716511,581038,-9.56241,16.149,-30.8219,36.0863,-8.76429,-0.752896,3.19925,9.36028,2.21466,3.83206,-0.901836,49.1523,11,0,0,0
0,1405716512,582047,-8.97866,16.104,-29.9232,35.1476,-8.76214,-0.855277,3.26974,9.39137,2.87942,5.00789,-1.62682,49.2382,11,0,0,0
0,1405716513,583050,-9.55082,15.784,-30.245,35.4276,-8.75266,-0.853213,3.25567,9.37744,1.50234,4.16943,-1.68771,49.197,11,0,0,0
0,1405716514,584057,-9.06369,16.9288,-30.2516,35.8314,-8.79174,-0.841296,3.21719,9.39962,2.51197,4.71444,-0.619129,49.2468,12,0,0,0
0,1405716515,585062,-8.91464,16.7217,-29.6015,35.1473,-8.76858,-0.839622,3.22646,9.38099,3.10851,3.40433,-1.04127,49.2086,11,0,0,0
0,1405716516,586067,-9.4975,15.9708,-30.2978,35.5419,-8.76433,-0.858092,3.22724,9.37896,2.34242,4.87606,-1.29942,49.134,10,0,0,0
0,1405716517,587070,-9.42506,16.6498,-29.8249,35.4341,-8.77547,-0.801898,3.16685,9.36381,2.72318,3.76108,-1.13971,49.1722,12,0,0,0
0,1405716518,588073,-9.63316,16.055,-30.1835,35.5191,-8.75997,-0.816838,3.16585,9.35024,2.16023,4.06843,-1.26833,49.1418,12,0,0,0
0,1405716519,589077,-8.99404,16.3227,-30.5925,35.8221,-8.7783,-0.810005,3.24099,9.39248,1.63415,4.3,-1.79027,49.1358,12,0,0,0
0,1405716520,590078,-9.25283,16.3046,-30.2169,35.56,-8.77462,-0.853352,3.20957,9.38209,1.60685,4.53924,-0.869878,49.0814,12,0,0,0
0,1405716521,591082,-10.0304,16.0075,-31.1621,36.4407,-8.76512,-0.793043,3.21478,9.36969,2.91529,5.55595,-1.50584,49.1099,11,0,0,0
0,1405716522,592084,-9.16893,16.398,-30.8659,36.1341,-8.75547,-0.794218,3.20919,9.35884,3.65677,4.8842,-1.49838,49.2272,11,0,0,0
0,1405716523,593085,-9.13549,16.1165,-30.3532,35.56,-8.75627,-0.836878,3.23706,9.3729,3.12253,4.55758,-1.09408,49.2584,12,0,0,0
0,1405716524,594086,-8.90053,16.7491,-30.2637,35.7162,-8.79504,-0.812121,3.20652,9.39649,2.42657,4.54285,-0.659424,49.1457,12,0,0,0
0,1405716525,595088,-9.3046,16.2517,-30.0351,35.395,-8.79308,-0.810095,3.21428,9.39713,2.19434,5.50897,0.144844,49.1336,12,0,0,0
0,1405716526,596090,-9.00906,16.5832,-30.3765,35.7617,-8.7493,-0.818119,3.23231,9.36309,3.20872,4.26508,-1.32258,49.2655,11,0,0,0
0,1405716527,597094,-9.09563,16.6185,-30.4234,35.8397,-8.77442,-0.801302,3.22705,9.3833,1.69421,4.17088,-1.45525,49.1876,11,0,0,0
0,1405716528,598102,-8.96742,16.55,-30.5166,35.855,-8.72715,-0.828618,3.2129,9.33662,1.91802,5.12667,-1.69105,49.1631,12,0,0,0
0,1405716529,599107,-9.27305,16.3116,-30.2596,35.6048,-8.76888,-0.812434,3.22447,9.37819,2.01068,4.58503,-1.58733,49.2404,12,0,0,0
0,1405716530,600108,-9.57701,16.0093,-30.1117,35.4222,-8.77831,-0.799079,3.2638,9.39945,1.28079,4.9404,-0.81861,49.1907,10,0,0,0
0,1405716531,601112,-9.61833,16.2374,-30.6713,36.0124,-8.77132,-0.809704,3.2743,9.39748,2.12892,4.54754,-2.5412,49.2436,12,0,0,0
0,1405716532,602116,-8.81027,16.7464,-30.0818,35.5384,-8.7652,-0.839021,3.16984,9.35845,1.91801,4.75004,-1.99387,49.1785,12,0,0,0
0,1405716533,603120,-8.95563,16.572,-30.1634,35.5622,-8.78083,-0.768488,3.27386,9.40275,2.93233,5.27377,-1.28893,49.1214,12,0,0,0
0,1405716534,604122,-8.86439,16.5367,-30.1743,35.532,-8.73874,-0.853753,3.21889,9.35178,3.06688,5.58072,-1.93925,49.2708,11,0,0,0
0,1405716535,605125,-8.94139,16.4855,-30.7233,35.9951,-8.74794,-0.80427,3.21459,9.35451,3.1737,4.60586,-0.955166,49.3103,11,0,0,0
0,1405716536,606128,-9.12143,16.2565,-30.389,35.6506,-8.78331,-0.823142,3.23833,9.39739,2.72196,4.71619,-0.966191,49.3093,12,0,0,0
0,1405716537,607133,-9.48276,16.2702,-30.3145,35.6876,-8.77538,-0.890669,3.21968,9.38972,2.28921,4.84375,-2.21904,49.3092,11,0,0,0
0,1405716538,608134,-9.08783,16.6673,-30.4534,35.8859,-8.76017,-0.813786,3.20405,9.36316,2.9767,4.90822,-1.11108,49.3054,11,0,0,0
0,1405716539,609137,-9.32642,16.2242,-30.1605,35.4946,-8.7659,-0.85762,3.2596,9.39157,1.59452,4.81233,-1.87171,49.2502,11,0,0,0
0,1405716540,610140,-9.22825,16.3336,-30.0215,35.4011,-8.74953,-0.844586,3.21144,9.35847,3.33157,4.87632,-1.12787,49.2902,11,0,0,0
0,1405716541,611145,-9.21652,16.3548,-30.0236,35.4096,-8.75135,-0.844442,3.23373,9.36783,1.92951,4.85926,-2.07687,49.1555,12,0,0,0
0,1405716542,612148,-9.17066,16.1512,-29.8611,35.166,-8.77983,-0.814432,3.20736,9.38275,2.27372,4.36608,-2.23156,49.2554,11,0,0,0
0,1405716543,613151,-9.75751,15.899,-30.0502,35.3695,-8.77037,-0.808173,3.18068,9.36426,2.4417,4.80618,-1.95212,49.3649,11,0,0,0
0,1405716544,614153,-9.23405,16.3937,-30.3553,35.7136,-8.78139,-0.840842,3.2251,9.3926,3.25711,4.60743,-0.998199,49.3986,11,0,0,0
0,1405716545,615154,-8.69316,16.5749,-30.2658,35.5853,-8.78812,-0.846602,3.22153,9.3982,2.54883,4.67512,-1.27842,49.2856,11,0,0,0
0,1405716546,616158,-9.33621,16.4267,-30.3476,35.7488,-8.76666,-0.773928,3.1618,9.35149,3.02966,4.75727,-1.2573,49.4327,12,0,0,0
0,1405716547,617162,-8.96332,16.5581,-30.2805,35.657,-8.78912,-0.853485,3.24067,9.40633,2.30109,3.70465,-1.56387,49.2973,11,0,0,0
0,1405716548,618164,-9.43327,16.2139,-29.9418,35.3326,-8.76613,-0.788801,3.17061,9.35521,2.73294,4.32841,-0.377449,49.2628,11,0,0,0
0,1405716549,619168,-9.53902,15.9828,-30.2947,35.5557,-8.80435,-0.794102,3.21883,9.40787,1.5321,4.97912,-1.16714,49.2799,11,0,0,0
0,1405716550,620172,-9.03918,17.0922,-29.6284,35.3793,-8.78767,-0.820011,3.18488,9.38291,1.49074,4.17572,-1.82041,49.3094,11,0,0,0
0,1405716551,621176,-9.24491,15.939,-30.3729,35.5251,-8.79713,-0.820634,3.21264,9.40127,2.25687,4.90539,-2.68977,49.2294,10,0,0,0
0,1405716552,622180,-9.36699,16.2988,-30.1537,35.5336,-8.77611,-0.851494,3.24954,9.39706,2.45847,4.08919,-1.9545,49.1186,11,0,0,0
0,1405716553,623183,-9.61957,15.6199,-30.6234,35.6975,-8.75497,-0.79497,3.2387,9.3686,2.41959,4.60714,-1.99396,49.2619,11,0,0,0
0,1405716554,624188,-9.58183,15.817,-30.4401,35.6173,-8.77001,-0.775428,3.20769,9.37036,2.75926,5.45092,-1.50129,49.2913,11,0,0,0
0,1405716555,625189,-9.29222,16.257,-30.627,35.8978,-8.75645,-0.811534,3.25,9.37532,2.73039,4.26834,-1.08433,49.1516,10,0,0,0
0,1405716556,626194,-9.42089,16.5121,-30.0517,35.5599,-8.82504,-0.860159,3.15551,9.41161,2.26912,4.73949,-0.456348,49.3208,11,0,0,0
0,1405716557,627196,-8.4251,22.6188,-31.1801,39.4308,-8.87513,-0.832261,3.17884,9.46391,1.68421,5.59094,-1.61072,49.2277,10,0,0,0
0,1405716558,628199,-10.4326,19.2131,-31.0375,37.9646,-8.7847,-0.770553,3.10105,9.34779,2.50463,5.27249,-1.58865,49.0949,11,0,0,0
0,1405716559,629201,-5.62653,18.1594,-29.1271,34.7823,-8.71056,-0.951246,3.076,9.28658,1.64445,5.37406,-0.740588,49.2019,10,0,0,0
0,1405716560,630203,-5.79704,21.7655,-29.4442,37.0716,-8.77866,-0.828955,3.20427,9.38187,3.48398,3.28857,-1.33841,49.2479,12,0,0,0
0,1405716561,631209,-10.6859,11.6876,-30.0572,33.9739,-8.78306,-0.763352,3.13613,9.35736,1.88446,4.13361,-1.24426,49.2868,10,0,0,0
0,1405716562,632213,-10.06,18.7739,-30.7834,37.4336,-8.54702,-0.758747,3.16641,9.14623,3.19251,5.37131,-2.22446,49.2929,12,0,0,0
0,1405716563,633214,-8.51727,21.5283,-29.8478,37.7744,-8.76574,-0.851529,3.27246,9.39533,1.95784,4.7364,-2.048,49.2482,10,0,0,0
0,1405716564,634215,-7.55537,15.0085,-28.5429,33.1215,-8.89131,-0.80762,3.18488,9.47898,3.10796,3.53219,-3.24888,49.2982,11,0,0,0
0,1405716565,635220,-10.0669,13.8035,-29.7166,34.2776,-8.62371,-0.828911,3.32838,9.28082,2.55824,4.00153,-1.60375,49.2519,11,0,0,0
0,1405716566,636222,-8.70254,22.5319,-30.0455,38.5507,-8.79678,-0.735857,3.26574,9.41222,1.91895,4.48856,-1.71269,49.2688,10,0,0,0
0,1405716567,637226,-9.09296,11.549,-27.7103,31.3676,-8.79457,-0.733065,3.16742,9.37626,0.500139,5.7735,-1.34967,49.3004,11,0,0,0
0,1405716568,638230,-6.73758,20.6314,-28.931,36.167,-8.72833,-0.826552,3.22297,9.34101,2.77459,4.59923,0.496488,49.3183,11,0,0,0
0,1405716569,639232,-9.8715,21.2933,-29.9407,38.0434,-8.81608,-0.724334,3.19595,9.40542,2.6728,4.96187,-0.896118,49.2778,10,0,0,0
0,1405716570,640235,-8.65981,10.8784,-28.291,31.5232,-8.66364,-0.835433,3.27852,9.30082,2.54072,3.61969,-1.53908,49.2703,11,0,0,0
0,1405716571,641237,-8.37899,24.2771,-29.3957,39.0346,-8.67743,-0.81449,3.19144,9.28151,2.65819,4.45732,-2.03813,49.2725,11,0,0,0
0,1405716572,642241,-7.93493,14.4018,-27.9506,32.4285,-8.78365,-0.981264,3.18411,9.39435,2.65568,4.58357,-1.55704,49.2655,10,0,0,0
0,1405716573,643243,-9.92603,22.3116,-29.5662,38.347,-8.62047,-0.851967,3.25745,9.25469,2.39183,4.4665,-0.557603,49.2922,11,0,0,0
0,1405716574,644245,-8.81322,11.2614,-27.675,31.1512,-8.81743,-0.760306,3.183,9.40514,0.869383,4.50274,-2.86393,49.3082,10,0,0,0
0,1405716575,645248,-6.05637,24.2588,-28.0247,37.5574,-8.82963,-0.87727,3.08731,9.39486,2.08106,4.34992,-0.543793,49.3088,10,0,0,0
0,1405716576,646250,-6.74161,13.0176,-26.0001,29.8482,-8.95263,-0.653412,3.12562,9.50506,2.5422,5.84715,-0.510838,49.3836,12,0,0,0
0,1405716577,647252,-6.22621,12.7096,-26.6494,30.1743,-9.0194,-0.637176,3.1023,9.55929,1.26811,4.97377,-1.20079,49.2861,11,0,0,0
0,1405716578,648258,-6.42599,11.9062,-26.6361,29.8753,-8.7724,-0.840231,3.26664,9.39851,1.98785,5.11375,-1.95175,49.3249,11,0,0,0
0,1405716579,649260,-5.19833,16.3081,-27.0575,32.0169,-9.0197,-0.696321,2.9731,9.52256,1.79712,2.77611,-2.08046,49.3194,11,0,0,0
0,1405716580,650262,-8.52499,11.6506,-26.956,30.5784,-8.84169,-0.556487,2.87453,9.31386,0.968713,5.63008,-2.53635,49.3712,11,0,0,0
0,1405716581,651266,-7.91739,24.3903,-27.0951,37.3058,-8.54209,-0.990601,2.92,9.08157,2.51449,1.81591,-0.128506,49.4616,9,0,0,0
0,1405716582,652270,-11.8329,17.1736,-26.8604,34.0064,-8.81272,-0.728087,3.24199,9.41832,2.3925,3.66043,-2.95281,49.3065,11,0,0,0
0,1405716583,653271,-6.50998,14.9987,-28.1264,32.5336,-8.6073,-0.689011,3.0932,9.17214,3.72228,6.31367,-0.0651046,49.3968,11,0,0,0
0,1405716584,654274,-8.04134,26.4623,-28.5825,39.7728,-8.62321,-0.699262,3.02981,9.16671,3.47772,3.73253,-1.00533,49.3463,11,0,0,0
0,1405716585,655278,-10.7853,15.8448,-27.8029,33.7695,-8.9516,-0.690293,3.20412,9.53278,2.39192,3.92256,-4.45693,49.3862,13,0,0,0
0,1405716586,656287,-10.8218,16.0581,-27.2287,33.4123,-8.98064,-0.838225,3.28546,9.59941,4.01676,5.61131,-2.92902,49.3026,12,0,0,0
0,1405716587,657288,-10.129,12.3971,-27.1947,31.5569,-8.82073,-0.940397,3.29464,9.46278,2.82029,4.84882,-2.36481,49.3767,11,0,0,0
0,1405716588,658290,-11.063,16.8604,-27.8731,34.4031,-8.80679,-0.795274,3.39109,9.47056,2.47815,5.21456,-2.76625,49.3243,12,0,0,0
0,1405716589,659293,-10.9697,18.2478,-28.9223,35.9141,-8.64647,-0.783994,3.531,9.37252,3.49368,4.38695,-0.880416,49.4364,11,0,0,0
0,1405716590,660295,-12.7551,16.6643,-28.146,35.1082,-8.61685,-0.943029,3.57732,9.37746,5.46681,5.02558,-2.31689,49.405,11,0,0,0
0,1405716591,661296,-12.8177,15.8971,-29.2839,35.7009,-8.60106,-0.959351,3.34191,9.27723,6.64415,2.94253,-4.78278,49.3931,12,0,0,0
0,1405716592,662298,-12.7431,14.1234,-30.2926,35.7701,-8.69361,-0.827057,3.35269,9.35432,6.57004,5.36805,-2.36066,49.32,12,0,0,0
0,1405716593,663300,-12.5586,13.6611,-31.9535,36.9509,-8.80677,-0.65651,3.14079,9.37309,5.89361,4.74926,-3.41113,49.4132,12,0,0,0
0,1405716594,664303,-10.8843,14.654,-33.6015,38.2396,-8.7598,-0.844243,3.2012,9.36453,6.98186,5.50806,-2.89273,49.3025,12,0,0,0
0,1405716595,665307,-7.27297,13.1761,-33.1477,36.4044,-8.64565,-1.03273,3.12237,9.25003,7.91536,4.35159,-3.90326,49.4507,11,0,0,0
0,1405716596,666311,-8.23458,12.6119,-34.8412,37.9576,-8.70813,-0.818047,3.24392,9.32865,7.73032,5.06322,-3.91821,49.4756,12,0,0,0
0,1405716597,667313,-6.51747,15.7065,-34.9696,38.885,-8.64133,-0.885506,3.22027,9.26428,2.25494,4.97287,-1.97245,49.382,11,0,0,0
0,1405716598,668314,-8.25645,15.1448,-35.2216,39.2185,-8.55091,-1.07852,3.47419,9.29254,-3.46235,5.84726,-0.858027,49.3948,11,0,0,0
0,1405716599,669316,-9.45048,14.1851,-33.6782,37.7458,-8.66887,-0.936937,3.31716,9.32902,-3.59397,4.12904,0.996664,49.4915,12,0,0,0
0,1405716600,670321,-8.21163,18.2694,-31.8239,37.6027,-8.78218,-0.935107,3.21901,9.40017,-3.40586,3.7474,1.68512,49.3812,10,0,0,0
0,1405716601,671327,-8.99696,23.3559,-32.5843,41.0875,-8.78917,-0.919178,3.17463,9.39003,1.00945,4.81361,-0.70802,49.4026,11,0,0,0
0,1405716602,672330,-7.49324,13.5467,-30.6363,34.3256,-8.73985,-0.71165,3.12901,9.31032,3.1991,4.01833,-1.77412,49.4798,12,0,0,0
0,1405716603,673334,-8.49767,13.6665,-31.6042,35.4656,-8.94278,-0.789106,3.3085,9.56777,1.7672,3.60694,-1.8164,49.4855,11,0,0,0
0,1405716604,674335,-7.81537,18.646,-32.12,37.9532,-8.64652,-0.840274,3.32369,9.30136,1.80337,4.85579,-2.04344,49.4153,10,0,0,0
0,1405716605,675338,-10.0896,19.0094,-33.1363,39.5116,-8.71907,-0.73133,3.04737,9.26518,3.87341,3.86912,-1.79006,49.565,11,0,0,0
0,1405716606,676341,-8.05301,14.1982,-31.1951,35.2076,-8.72981,-0.855193,3.20355,9.33829,2.47303,4.8111,-0.897176,49.3696,10,0,0,0
0,1405716607,677345,-9.69421,13.4067,-31.2039,35.3186,-8.80051,-0.852436,3.23964,9.41652,1.91941,3.85784,-1.88313,49.46,12,0,0,0
0,1405716608,678348,-10.3845,15.3794,-32.1826,37.1495,-8.87166,-0.829337,3.22484,9.47596,1.3746,5.23653,-1.32456,49.3937,11,0,0,0
0,1405716609,679354,-9.8308,15.3355,-32.4653,37.2266,-8.84841,-0.87832,3.10405,9.41812,2.46091,4.90022,-0.795175,49.4715,11,0,0,0
0,1405716610,680357,-9.50281,18.5379,-32.5526,38.6475,-8.87074,-0.973875,3.19744,9.47956,2.6721,4.38961,-0.545046,49.4515,11,0,0,0
0,1405716611,681362,-9.34878,17.5416,-32.6971,38.265,-8.60466,-0.830359,3.3458,9.26952,3.50098,5.69931,-0.947894,49.4529,11,0,0,0
0,1405716612,682365,-8.86573,16.4335,-32.2559,37.2707,-8.66836,-0.524069,3.17379,9.24598,2.82091,3.50422,-2.27379,49.4,11,0,0,0
0,1405716613,683371,-9.24163,15.8958,-32.6434,37.4657,-8.33827,-0.706252,2.97344,8.8807,3.81923,4.8723,-0.646219,49.4155,11,0,0,0
0,1405716614,684373,-8.2024,16.599,-32.9704,37.8134,-8.89619,-0.622838,3.21018,9.47815,2.35875,3.85021,-1.8661,49.3912,10,0,0,0
0,1405716615,685376,-8.19925,16.884,-32.9007,37.8781,-8.75286,-0.68068,3.21354,9.34895,2.45013,6.33807,-2.53888,49.3814,10,0,0,0
0,1405716616,686380,-8.11928,15.6842,-32.6826,37.1493,-8.66784,-0.669315,3.20551,9.26578,3.08546,3.93948,-1.16992,49.4779,12,0,0,0
0,1405716617,687383,-7.05708,14.1808,-32.0726,35.7708,-7.97608,-0.756104,2.76271,8.47479,2.48436,3.16801,-1.24158,49.4121,12,0,0,0
0,1405716618,688388,-6.40193,13.8528,-31.4612,34.9671,-8.95954,-0.616964,3.34986,9.58518,3.39204,4.54374,-1.46943,49.36,12,0,0,0
0,1405716619,689390,-5.62263,15.4823,-31.5709,35.6095,-8.47708,-0.863759,3.10293,9.06836,2.34247,6.22646,-2.52653,49.4306,9,0,0,0
0,1405716620,690393,-4.58709,17.8902,-32.0933,37.0281,-8.8487,-0.930016,3.34163,9.50426,3.42529,5.13798,-2.75944,49.4445,12,0,0,0
0,1405716621,691395,-4.98251,14.2758,-31.0852,34.5675,-8.78961,-0.853335,3.28916,9.42359,3.28688,7.07834,-2.77105,49.4578,12,0,0,0
0,1405716622,692400,-6.6844,14.0211,-31.3887,35.0218,-9.02731,-0.72175,3.30871,9.64162,3.45899,4.59924,-0.353282,49.3714,9,0,0,0
0,1405716623,693401,-5.14511,21.0068,-31.3351,38.0742,-8.74491,-0.811984,3.21262,9.35166,2.44065,4.67809,-0.892709,49.5107,11,0,0,0
0,1405716624,694406,-6.69898,14.8726,-31.331,35.3228,-8.77204,-0.625344,3.36875,9.41744,3.08422,4.30423,-2.00844,49.4843,10,0,0,0
0,1405716625,695410,-7.12867,14.5558,-31.4889,35.4153,-8.58008,-0.792063,3.36216,9.24929,3.20694,5.72204,-0.775573,49.4149,13,0,0,0
0,1405716626,696415,-6.32202,15.2461,-31.0289,35.1455,-8.58247,-0.821726,3.41919,9.27496,2.43631,5.52021,-1.39085,49.5637,11,0,0,0
0,1405716627,697418,-6.12254,14.5335,-30.7719,34.5777,-8.8531,-0.773383,3.37365,9.50563,2.29015,4.67991,-2.28943,49.5554,12,0,0,0
0,1405716628,698424,-4.93133,19.4612,-31.4414,37.3043,-8.82659,-0.754022,3.19713,9.41801,3.06504,4.81359,-1.01314,49.5343,10,0,0,0
0,1405716629,699430,-7.10614,15.4128,-31.9774,36.2023,-8.68123,-0.731005,3.32142,9.32362,4.00846,4.57029,-1.5812,49.47,12,0,0,0
0,1405716630,700436,-7.39391,14.9624,-31.7422,35.8624,-8.79474,-0.69615,3.22215,9.39224,2.79954,4.37253,-1.05308,49.5683,12,0,0,0
0,1405716631,701439,-6.6918,15.7758,-32.038,36.333,-8.74831,-0.714012,3.24594,9.35836,3.10163,4.77632,-1.84584,49.4774,11,0,0,0
0,1405716632,702440,-7.27525,15.051,-32.0977,36.1901,-8.77618,-0.728532,3.15971,9.35606,2.97746,3.6648,-2.43854,49.5135,10,0,0,0
0,1405716633,703444,-7.14377,15.0261,-31.9623,36.0334,-8.78932,-0.69589,3.21736,9.38551,1.66767,4.58127,-0.899281,49.4055,11,0,0,0
0,1405716634,704448,-6.83347,15.4462,-31.446,35.695,-8.78807,-0.723797,3.21272,9.38486,2.20396,4.50808,-0.740142,49.4282,11,0,0,0
0,1405716635,705452,-7.06504,14.9243,-31.772,35.8066,-8.7544,-0.71638,3.1811,9.34196,1.73765,4.53218,-1.79419,49.4704,11,0,0,0
0,1405716636,706457,-7.09725,15.5926,-31.6787,36.0144,-8.79777,-0.721498,3.2603,9.41014,1.68152,4.44966,-0.733942,49.4429,11,0,0,0
0,1405716637,707458,-6.77684,15.2176,-32.0023,36.0783,-8.76134,-0.717981,3.25807,9.37505,2.47366,6.01357,-2.07336,49.4426,11,0,0,0
0,1405716638,708459,-6.88933,15.38,-32.1124,36.2659,-8.73848,-0.682709,3.21832,9.33728,2.1604,5.23497,0.443727,49.411,11,0,0,0
0,1405716639,709461,-7.03739,14.784,-31.7538,35.7267,-8.72366,-0.702408,3.2204,9.32559,1.73585,3.36792,-1.57284,49.3314,11,0,0,0
0,1405716640,710464,-7.3326,14.9528,-31.4228,35.5633,-8.79576,-0.604707,3.2136,9.38394,2.10151,4.03243,-1.59418,49.3733,10,0,0,0
0,1405716641,711469,-7.22929,15.0886,-31.8747,35.9989,-8.75564,-0.695811,3.19413,9.34601,1.90271,4.13025,-1.45675,49.3742,10,0,0,0
0,1405716642,712471,-7.14079,15.4165,-31.6861,35.9537,-8.78302,-0.759167,3.19436,9.37666,2.646,3.87512,-0.47307,49.3737,10,0,0,0
0,1405716643,713477,-6.8811,15.6967,-31.6152,35.9619,-8.7576,-0.681682,3.21597,9.35429,3.5195,3.98194,-1.88479,49.3723,11,0,0,0
0,1405716644,714480,-6.70687,15.0529,-31.9222,35.9249,-8.80802,-0.732903,3.21089,9.40363,3.50526,4.69128,-0.681223,49.4249,11,0,0,0
0,1405716645,715486,-7.37993,14.8441,-31.8229,35.8818,-8.77158,-0.729145,3.23497,9.37749,1.78807,5.81386,-0.23755,49.3944,11,0,0,0
0,1405716646,716487,-6.93595,15.6479,-31.3438,35.7127,-8.78662,-0.72666,3.21479,9.38443,2.17175,4.45468,-1.01419,49.4204,10,0,0,0
0,1405716647,717491,-6.99409,15.2625,-32.1757,36.2924,-8.78478,-0.713351,3.20761,9.37923,2.73815,5.54729,-1.59733,49.4261,11,0,0,0
0,1405716648,718494,-7.21745,15.0833,-31.7843,35.9143,-8.78713,-0.687401,3.14235,9.35738,1.83224,4.73015,-1.74379,49.373,11,0,0,0
0,1405716649,719496,-7.34676,14.7173,-31.8306,35.8297,-8.78569,-0.703839,3.22082,9.38389,2.81976,4.85075,-0.699985,49.4423,11,0,0,0
0,1405716650,720499,-7.2228,15.3897,-31.7214,35.9897,-8.80913,-0.720242,3.24308,9.41473,2.12015,4.83849,-1.6116,49.4038,11,0,0,0
0,1405716651,721507,-6.91206,15.1377,-31.9637,36.0362,-8.75856,-0.628545,3.21088,9.34971,2.37746,5.16187,-1.24495,49.4166,12,0,0,0
0,1405716652,722514,-6.70408,15.322,-31.5029,35.6671,-8.75603,-0.72685,3.23119,9.36146,1.98803,4.18138,-1.05951,49.4425,12,0,0,0
0,1405716653,723519,-6.97152,14.7735,-32.1396,36.0529,-8.79234,-0.717807,3.22735,9.39342,2.07302,5.49594,-0.826981,49.4701,12,0,0,0
0,1405716654,724524,-7.24359,14.9558,-31.8167,35.895,-8.78832,-0.758679,3.23411,9.39519,3.79215,4.56454,-2.16131,49.4069,12,0,0,0
0,1405716655,725531,-7.27995,14.892,-32.2285,36.2415,-8.7715,-0.691058,3.22334,9.37052,2.82006,4.35559,-2.01242,49.3502,11,0,0,0
0,1405716656,726534,-6.68268,15.6956,-31.8438,36.1253,-8.77426,-0.728704,3.25282,9.38614,3.099,3.62364,-2.02628,49.4624,11,0,0,0
0,1405716657,727539,-7.08758,15.2977,-31.7482,35.9472,-8.79825,-0.742285,3.24313,9.40628,3.08025,4.39651,-1.20236,49.3616,12,0,0,0
0,1405716658,728545,-7.07281,14.9921,-31.9062,35.9555,-8.80652,-0.708606,3.23498,9.40861,3.46122,4.55141,-1.3658,49.5,11,0,0,0
0,1405716659,729548,-6.87471,15.1464,-31.9702,36.0385,-8.76232,-0.724784,3.20786,9.35916,2.44521,5.03311,-1.61722,49.4763,12,0,0,0
0,1405716660,730550,-7.22419,15.2725,-31.9606,36.1513,-8.7999,-0.728451,3.21399,9.39674,2.30039,4.3094,-1.99737,49.4763,12,0,0,0
0,1405716661,731551,-7.22556,15.3125,-31.544,35.8009,-8.77036,-0.734544,3.21721,9.37065,2.70796,4.88725,-1.55071,49.5343,12,0,0,0
0,1405716662,732556,-7.36358,14.853,-31.9989,36.0384,-8.77208,-0.716148,3.20581,9.36694,2.78951,4.34509,-1.93155,49.5283,11,0,0,0
0,1405716663,733557,-7.1232,14.6568,-31.8418,35.7696,-8.75329,-0.704673,3.219,9.353,2.28718,3.62475,-1.50109,49.4488,12,0,0,0
0,1405716664,734562,-7.01509,15.177,-31.9215,36.0352,-8.76917,-0.653248,3.17281,9.34836,2.41291,5.12538,-1.24244,49.5177,10,0,0,0
0,1405716665,735564,-7.67779,17.2626,-32.3708,37.4808,-8.74066,-0.708683,3.17574,9.32666,2.90912,4.406,-1.80891,49.4815,10,0,0,0
0,1405716666,736567,-8.03413,10.3966,-31.1488,33.8066,-8.83663,-0.648376,3.15708,9.40604,2.46932,4.8694,-0.948934,49.5064,11,0,0,0
0,1405716667,737572,-5.88276,4.66749,-29.4134,30.3569,-8.82901,-0.709383,3.10149,9.38476,1.74871,4.09908,-2.19682,49.44,11,0,0,0
0,1405716668,738576,-8.16376,9.01707,-30.9188,33.2254,-9.00916,-0.802661,2.90607,9.50023,2.7557,3.48048,-1.33985,49.3654,11,0,0,0
0,1405716669,739577,-2.93144,19.1644,-30.2946,35.9671,-8.75928,-0.826108,3.16822,9.3512,2.33551,5.31081,-2.02488,49.5479,11,0,0,0
0,1405716670,740578,-3.5859,11.0421,-29.6477,31.8398,-8.81397,-0.768515,3.19219,9.40568,2.95322,4.23707,-1.13331,49.4088,11,0,0,0
0,1405716671,741584,-3.25884,18.3528,-30.0458,35.3581,-8.47844,-0.70583,3.16454,9.07725,3.12083,4.89096,-0.0610894,49.4323,11,0,0,0
0,1405716672,742591,-7.38428,13.3376,-31.2027,34.7279,-8.87748,-0.748685,3.19265,9.46378,3.71416,5.19984,-2.56282,49.4862,12,0,0,0
0,1405716673,743597,-3.31632,18.6879,-30.4341,35.8674,-9.05253,-0.67413,3.05252,9.57709,0.869766,4.54885,-1.19256,49.4295,11,0,0,0
0,1405716674,744599,-5.50252,12.2781,-29.5037,32.4268,-8.80774,-0.767242,3.28498,9.43165,1.02175,3.8712,-0.452582,49.4099,10,0,0,0
0,1405716675,745605,-7.54362,8.80065,-29.4886,31.6849,-8.67706,-0.779544,3.18117,9.27464,2.87079,4.86584,0.104744,49.5028,11,0,0,0
0,1405716676,746612,-6.7679,7.94463,-29.8347,31.6074,-8.82573,-0.938016,2.97947,9.36219,0.535183,5.01077,-0.853616,49.458,12,0,0,0
0,1405716677,747613,-5.83686,12.5158,-29.6348,32.6945,-8.69683,-0.400891,3.12067,9.24846,1.96435,4.36453,-0.358023,49.5006,11,0,0,0
0,1405716678,748620,-5.39635,17.2336,-29.8379,34.8772,-8.76915,-0.866295,3.26728,9.39806,1.0085,4.05701,-1.7796,49.5249,12,0,0,0
0,1405716679,749625,-5.91441,14.3827,-29.4717,33.3231,-8.75437,-0.796467,2.93042,9.26611,3.04681,3.28715,-0.905299,49.4781,12,0,0,0
0,1405716680,750629,-6.94896,10.136,-29.4919,31.9499,-8.84929,-0.681029,3.28485,9.46383,2.47101,5.43905,-1.28841,49.5002,12,0,0,0
0,1405716681,751632,-8.98083,15.0845,-30.8503,35.4956,-8.70189,-0.805002,3.20378,9.3078,3.35632,4.6619,-0.627002,49.3938,11,0,0,0
0,1405716682,752635,-7.2832,18.8889,-30.1187,36.2901,-8.4987,-0.90746,3.31953,9.169,2.91767,4.23407,-2.79161,49.5014,11,0,0,0
0,1405716683,753638,-6.91892,11.4325,-28.6131,31.5798,-8.90434,-0.331914,3.21452,9.47263,2.69572,4.89033,-0.821873,49.5357,11,0,0,0
0,1405716684,754643,-5.73283,20.8195,-29.7031,36.7232,-8.76593,-0.734632,3.01817,9.30003,2.27523,4.83463,-0.450736,49.4664,11,0,0,0
0,1405716685,755645,-5.91553,9.89514,-28.2238,30.4876,-8.923,-0.676494,3.04925,9.45386,3.28392,4.26674,-1.67411,49.5736,12,0,0,0
0,1405716686,756651,-8.6659,12.2089,-29.7983,33.3481,-8.77269,-0.727235,3.26399,9.38843,2.45571,4.59509,-1.69022,49.4327,12,0,0,0
0,1405716687,757652,-9.13848,18.2066,-30.9701,37.0694,-8.93133,-0.824806,3.2011,9.52344,7.08869,4.05228,-4.19579,49.5449,11,0,0,0
0,1405716688,758654,-6.12444,21.4149,-32.088,39.0608,-8.24545,-0.874313,3.15533,8.87175,8.58028,4.73448,-3.82481,49.6174,12,0,0,0
0,1405716689,759659,-5.45206,9.99251,-31.0897,33.1081,-8.69762,-0.800087,3.24472,9.31756,9.68834,4.5836,-4.81144,49.5023,12,0,0,0
0,1405716690,760661,-1.96882,18.7465,-33.2005,38.1783,-8.92183,-0.587797,3.24983,9.51346,9.66809,5.35223,-5.12741,49.4345,12,0,0,0
0,1405716691,761665,-4.9774,10.5312,-34.5349,36.4464,-9.02812,-0.681139,3.2119,9.60662,10.4341,5.59847,-4.69283,49.4917,11,0,0,0
0,1405716692,762670,-1.82825,17.7693,-36.5318,40.6652,-8.64576,-0.592703,3.31308,9.27777,12.0702,4.99973,-5.86918,49.396,11,0,0,0
0,1405716693,763671,0.247653,7.4132,-35.9888,36.7452,-8.69188,-0.609023,3.29446,9.31521,9.41002,5.19907,-4.48242,49.4653,12,0,0,0
0,1405716694,764673,1.90513,19.5221,-38.4729,43.1846,-8.81529,-0.757155,3.17191,9.39913,10.3426,4.8183,-4.68015,49.5363,12,0,0,0
0,1405716695,765676,1.83366,14.3028,-39.3394,41.8989,-8.75753,-0.589773,3.30549,9.37915,5.8868,4.75302,-3.24503,49.3982,11,0,0,0
0,1405716696,766678,3.20454,13.5174,-38.9431,41.3468,-8.64411,-0.768409,3.35978,9.30587,1.57656,6.20177,-1.42618,49.6042,12,0,0,0
0,1405716697,767681,2.60876,15.1372,-39.3464,42.2384,-8.65376,-0.690781,3.32412,9.29594,1.98082,4.82281,-1.55505,49.4956,11,0,0,0
0,1405716698,768683,2.25811,13.1186,-38.4234,40.6639,-8.81099,-0.691024,3.15095,9.38294,2.90921,5.6268,-0.150954,49.5861,12,0,0,0
0,1405716699,769685,4.12505,10.9937,-37.9594,39.7341,-8.69191,-0.826117,3.33683,9.34699,1.47555,5.17437,-2.4439,49.57,12,0,0,0
0,1405716700,770691,1.85521,7.01672,-37.7785,38.4694,-8.78295,-0.689013,3.25356,9.39152,3.22404,4.77967,-2.85601,49.4816,12,0,0,0
0,1405716701,771696,6.0602,18.0116,-38.5571,42.9859,-8.79462,-0.742199,3.34978,9.44019,4.4262,4.94334,-3.79868,49.42,10,0,0,0
0,1405716702,772698,5.56868,20.3295,-39.7274,44.9729,-8.61122,-0.731081,3.2588,9.23619,5.58887,4.47054,-4.3805,49.6055,11,0,0,0
0,1405716703,773700,8.62882,10.1113,-38.3161,40.5564,-8.77287,-0.7915,3.27078,9.39615,7.32409,5.42551,-5.05123,49.4657,12,0,0,0
0,1405716704,774703,4.5788,18.9432,-40.9861,45.3836,-8.97802,-0.973397,3.28504,9.60957,8.04269,4.67912,-4.43957,49.4604,11,0,0,0
0,1405716705,775704,5.82181,17.0804,-40.7271,44.5458,-8.52234,-0.842349,3.51404,9.25679,11.7584,3.47866,-5.59543,49.5657,11,0,0,0
0,1405716706,776708,12.5431,0.798926,-38.2441,40.2564,-8.47507,-0.994569,3.39759,9.18475,13.0831,4.64456,-7.40865,49.417,12,0,0,0
0,1405716707,777712,11.3806,3.89425,-39.8423,41.6184,-8.46765,-0.823084,3.41227,9.16636,13.4154,5.8672,-9.21677,49.5356,10,0,0,0
0,1405716708,778715,18.4194,18.4335,-41.2037,48.7525,-8.68332,-1.08517,3.39926,9.3879,13.4122,3.99686,-7.27882,49.3941,11,0,0,0
0,1405716709,779717,20.0979,4.90185,-39.5833,44.6631,-9.01275,-0.806779,3.27532,9.62332,15.025,4.15078,-6.87808,49.4235,11,0,0,0
0,1405716710,780722,19.2399,13.8368,-41.9175,48.153,-8.82616,-0.878213,3.37727,9.49095,8.70182,4.11444,-4.21427,49.3872,10,0,0,0
0,1405716711,781724,23.141,16.771,-41.0375,50.0085,-8.92889,-0.822443,3.34377,9.56986,3.91164,4.31527,-2.44314,49.4257,12,0,0,0
0,1405716712,782727,24.1889,11.8314,-40.0999,48.302,-8.73469,-0.692707,3.28816,9.35877,5.28627,4.98928,-2.64624,49.3422,10,0,0,0
0,1405716713,783730,25.9876,12.6711,-39.7614,49.1618,-8.74608,-0.725711,3.46073,9.43383,5.45039,5.86474,-4.04655,49.4958,11,0,0,0
0,1405716714,784732,25.6839,10.6344,-38.4327,47.4323,-8.75138,-0.77771,3.18195,9.34432,4.97319,4.78236,-2.85827,49.4506,12,0,0,0
0,1405716715,785733,22.5172,20.14,-39.5285,49.7508,-8.76057,-0.764826,3.39711,9.42724,2.73442,4.29696,-2.3625,49.4007,11,0,0,0
0,1405716716,786737,20.1924,24.4728,-40.0686,51.1092,-9.02217,-0.848642,3.43229,9.69022,3.11712,5.66718,-2.29343,49.4775,11,0,0,0
0,1405716717,787739,21.7752,20.3302,-49.4714,57.7486,-9.60693,-0.713476,3.51976,10.2563,2.58608,7.93649,-2.17841,49.3552,11,0,0,0
0,1405716718,788744,26.7106,-0.822122,-41.767,49.5845,-8.61276,-0.857918,3.19838,9.22742,3.56991,3.84645,-3.64633,49.4978,12,0,0,0
0,1405716719,789748,32.37,6.64392,-31.5463,45.6851,-8.86176,-0.635084,3.43544,9.52556,2.09137,4.84968,-1.39408,49.4849,12,0,0,0
0,1405716720,790751,19.8261,2.86152,-23.1864,30.641,-8.63125,-0.675955,3.23076,9.24085,3.03987,5.0003,-0.723425,49.451,12,0,0,0
0,1405716721,791753,11.8414,5.99573,-13.5296,18.9531,-8.76843,-0.862024,3.13769,9.35273,2.20259,5.03122,-0.500169,49.4927,11,0,0,0
0,1405716722,792756,8.572,19.5989,-16.5015,27.0166,-8.85216,-0.653648,3.18208,9.4294,1.78008,4.13753,-0.771755,49.51,12,0,0,0
0,1405716723,793760,18.1326,0.741705,-32.0677,36.8467,-8.42843,-0.902932,3.5288,9.18183,2.51552,6.73061,-2.15921,49.5851,11,0,0,0
0,1405716724,794763,22.884,1.4417,-32.1385,39.4796,-8.94878,-0.860737,3.37252,9.60185,5.12153,4.32197,-3.71649,49.5286,11,0,0,0
0,1405716725,795764,31.6318,30.9547,-40.1672,59.7676,-9.00727,-0.777616,3.04576,9.54004,3.47019,4.93452,-3.00253,49.4895,11,0,0,0
0,1405716726,796766,31.0246,-7.96229,-48.9439,58.493,-9.02464,-0.814817,3.21527,9.61489,2.47808,4.87794,-2.11766,49.5058,12,0,0,0
0,1405716727,797768,8.18135,-8.53555,-33.0291,35.0815,-9.171,-0.595912,2.98866,9.66408,3.02907,5.30399,-2.61098,49.5223,11,0,0,0
0,1405716728,798773,1.46106,8.09983,-15.1384,17.2312,-8.80722,-0.813294,3.11458,9.37705,2.56994,3.75532,-0.861414,49.5701,11,0,0,0
0,1405716729,799778,9.91317,16.8967,-15.8192,25.1797,-9.03288,-0.653497,2.94811,9.52425,2.10197,5.64945,-1.52884,49.526,12,0,0,0
0,1405716730,800783,19.8573,23.225,-38.2065,48.9229,-8.74013,-0.809732,3.08319,9.30331,3.73145,5.13982,-1.78384,49.508,12,0,0,0
0,1405716731,801788,24.2269,7.75689,-38.4322,46.0885,-8.88141,-0.726504,3.08937,9.43141,2.94619,5.40747,-1.62413,49.6778,11,0,0,0
0,1405716732,802790,23.3163,7.93938,-34.7543,42.5975,-8.8382,-0.677557,2.96384,9.34651,2.16848,3.44532,-1.7422,49.5886,10,0,0,0
0,1405716733,803796,23.308,5.10097,-32.7537,40.5226,-8.80252,-0.701882,3.01278,9.33027,2.52707,5.12163,-1.01429,49.5984,11,0,0,0
0,1405716734,804797,23.9547,5.70487,-29.5828,38.4905,-8.94114,-0.699844,2.85167,9.41094,2.36567,4.96529,-0.85042,49.5701,12,0,0,0
0,1405716735,805800,22.5896,-1.3234,-28.1796,36.1404,-8.81148,-0.646495,3.24751,9.4131,4.19515,4.98845,-0.419904,49.5786,10,0,0,0
0,1405716736,806805,25.0159,8.6055,-28.0558,38.5614,-9.02525,-0.79532,3.00217,9.54466,1.80721,6.14891,-2.36576,49.536,12,0,0,0
0,1405716737,807807,24.4575,9.72042,-26.9709,37.684,-8.88087,-0.674992,3.07025,9.42083,2.28543,4.02242,-1.08734,49.6705,11,0,0,0
0,1405716738,808813,22.8187,2.47793,-26.0811,34.7427,-8.56465,-0.706861,3.46001,9.26415,2.04039,5.41426,-0.986907,49.5263,11,0,0,0
0,1405716739,809814,28.8054,29.5869,-29.5812,50.7955,-8.40594,-0.82931,3.60027,9.18202,1.92112,4.45703,0.137109,49.6479,10,0,0,0
0,1405716740,810817,24.103,22.8356,-28.335,43.6497,-8.60563,-0.632222,3.27543,9.22957,1.44753,3.94436,-0.353847,49.5412,11,0,0,0
0,1405716741,811822,21.1145,24.5028,-37.2094,49.3027,-8.78072,-0.827837,3.26946,9.40615,-3.98509,5.31297,1.19619,49.4756,10,0,0,0
0,1405716742,812826,26.6494,13.4208,-40.8216,50.564,-9.30867,-0.569416,3.19457,9.85803,-8.75606,4.29134,4.84471,49.6354,12,0,0,0
0,1405716743,813831,24.3784,18.4715,-44.2742,53.8118,-8.71246,-0.607405,3.20378,9.3027,-9.63451,3.78575,4.67919,49.7445,10,0,0,0
0,1405716744,814833,16.9883,3.46775,-29.2797,34.0284,-8.74738,-0.826118,3.08016,9.31056,-9.56917,4.14858,4.36792,49.5904,11,0,0,0
0,1405716745,815836,12.6762,8.69134,-35.1518,38.365,-8.89626,-0.63028,3.14169,9.45574,-3.00218,3.94771,3.31992,49.6624,12,0,0,0
0,1405716746,816840,7.83738,17.0507,-30.6077,35.9024,-9.28527,-0.176192,3.00646,9.76146,-3.96334,6.15957,1.93503,49.7086,11,0,0,0
0,1405716747,817842,8.06899,11.7262,-36.4316,39.1136,-8.7059,-0.548405,3.24443,9.30697,-5.19344,3.48014,1.12226,49.6304,11,0,0,0
0,1405716748,818844,5.17953,16.4488,-40.2798,43.8161,-8.84321,-0.699929,3.17713,9.42266,-5.09105,2.57295,4.05019,49.6582,10,0,0,0
0,1405716749,819846,5.88372,5.2283,-43.896,44.5961,-8.85564,0.159878,3.24227,9.43188,-7.52247,3.82707,-0.23923,49.6471,10,0,0,0
0,1405716750,820849,7.10563,16.5701,-29.5317,34.6003,-9.30065,-1.59832,3.60277,10.1013,-8.37812,5.86916,3.95984,49.6633,11,0,0,0
0,1405716751,821860,6.35059,24.268,-46.3486,52.7016,-9.2314,-1.33531,3.42311,9.93577,-4.79094,4.38238,4.1702,49.6232,11,0,0,0
0,1405716752,822863,4.53221,13.212,-35.4545,38.1066,-9.78943,-0.839058,3.12834,10.3113,-5.01561,3.31603,1.99268,49.7727,11,0,0,0
0,1405716753,823869,4.78742,13.1566,-35.0958,37.7853,-9.62545,-0.39351,3.18075,10.145,-10.1518,4.6407,4.92466,49.7102,12,0,0,0
0,1405716754,824871,2.02785,16.1912,-32.8837,36.7098,-9.14659,-0.756766,2.95187,9.64087,-10.3138,3.08936,5.11639,49.725,6,0,0,0
0,1405716755,825877,-0.722377,16.6628,-31.2802,35.4489,-9.08198,0.732625,3.50081,9.76088,-5.05324,4.54875,0.408435,49.6227,6,0,0,0
0,1405716756,826882,-2.97047,16.7967,-31.4473,35.7754,-8.228,0.249432,3.21334,8.83673,-1.851,5.7974,-0.179478,49.669,6,0,0,0
0,1405716757,827889,-4.8693,15.8254,-32.199,36.2068,-9.21839,-1.30686,3.11398,9.81751,-2.43818,5.92238,1.33068,49.7071,7,0,0,0
0,1405716758,828900,-3.95724,14.8661,-30.9351,34.5491,-8.63623,-1.00125,2.98319,9.19165,0.718049,4.00816,0.324449,49.6316,9,0,0,0
0,1405716759,829906,-5.38797,17.8888,-30.8345,36.0528,-8.00269,0.247091,3.19255,8.61954,0.543694,4.70035,-0.0487839,49.6639,8,0,0,0
0,1405716760,830908,-4.54511,17.0277,-29.466,34.3344,-8.20373,-0.260738,3.28764,8.84182,-1.59287,5.98938,0.232348,49.6737,8,0,0,0
0,1405716761,831911,-3.21623,15.7542,-27.5969,31.9395,-8.90209,-1.62955,3.0572,9.55245,-0.569083,5.21687,-1.26748,49.6347,7,0,0,0
0,1405716762,832915,-5.09094,18.8298,-27.5608,33.7651,-9.51514,-1.03066,3.0019,10.0305,0.0770926,6.85478,0.109159,49.6721,7,0,0,0
0,1405716763,833923,-4.35775,16.0699,-28.3803,32.904,-8.44204,0.0808911,3.3204,9.07192,2.81622,2.16294,-0.956253,49.5952,7,0,0,0
0,1405716764,834928,-5.28673,20.1163,-28.7442,35.4802,-8.68326,-1.04874,3.09037,9.27628,1.46034,5.52937,-0.533993,49.6673,6,0,0,0
0,1405716765,835934,-6.12547,18.1501,-28.9594,34.7217,-8.33291,-0.0172034,3.23734,8.93969,2.3826,3.98986,-0.378584,49.6517,7,0,0,0
0,1405716766,836935,-6.60659,16.8875,-27.2462,32.729,-8.86523,-1.20447,3.04332,9.45012,0.587156,5.90911,-3.65307,49.631,7,0,0,0
0,1405716767,837951,-6.11615,18.627,-28.1442,34.2997,-8.8676,-0.653409,3.2272,9.45918,0.737078,6.56424,-1.10382,49.6017,8,0,0,0
0,1405716768,838952,-5.48214,17.8936,-27.0895,32.9253,-9.5604,-0.0589925,3.16078,10.0695,1.63205,3.46572,-1.58749,49.6772,8,0,0,0
0,1405716769,839955,-6.18059,17.9172,-26.9739,32.9669,-7.48645,-1.08465,3.03514,8.15079,1.3642,5.6956,-1.01508,49.6788,8,0,0,0
0,1405716770,840964,-6.12588,21.6269,-29.5345,37.1151,-9.30784,-0.376136,3.47613,9.94287,1.44336,5.84742,-1.722,49.6868,7,0,0,0
0,1405716771,841970,-5.13195,19.4198,-29.2467,35.48,-8.39202,-0.24364,3.2143,8.98983,1.91279,5.91819,-1.0948,49.731,8,0,0,0
0,1405716772,842974,-5.13416,15.9213,-28.6198,33.1503,-9.11564,-0.757119,3.09996,9.65805,-0.868255,4.81633,-0.256403,49.6958,8,0,0,0
0,1405716773,843983,-3.71751,15.6355,-28.3986,32.6307,-9.15035,-0.130004,3.42909,9.77264,0.815134,4.56777,0.337279,49.6587,6,0,0,0
0,1405716774,844988,-4.27987,19.9967,-27.8023,34.5131,-8.52459,-0.774783,3.14302,9.11852,2.45114,5.07907,-0.927433,49.7376,7,0,0,0
0,1405716775,845990,-8.6453,20.799,-29.4901,37.108,-9.65827,-0.678245,3.23475,10.2081,3.25026,6.16578,-1.80633,49.722,7,0,0,0
0,1405716776,846996,-6.09139,16.2958,-28.8082,33.6537,-9.90399,-0.424412,3.33633,10.4595,1.69687,7.55673,-2.66923,49.6946,7,0,0,0
0,1405716777,847998,-7.62698,16.2864,-26.7267,32.2138,-7.29642,-0.602988,3.24163,8.00684,1.95554,5.37128,-1.45601,49.6204,7,0,0,0
0,1405716779,849007,-6.37092,15.3319,-30.3085,34.5581,-8.8852,-0.878765,2.91448,9.39219,3.47455,3.93104,-2.26924,49.7212,7,0,0,0
0,1405716780,850012,-3.89826,12.5642,-26.339,29.4415,-9.16211,-0.663879,3.02801,9.67232,1.91144,5.03705,-1.1004,49.683,8,0,0,0
0,1405716781,851017,-3.94247,23.2102,-26.48,35.4323,-8.61235,-1.39304,3.60733,9.44066,-2.00333,6.00337,0.00766252,49.679,7,0,0,0
0,1405716782,852020,-8.96514,24.9858,-28.6717,39.0734,-9.53552,-0.8277,3.2929,10.122,-3.29705,5.31028,2.7621,49.6749,8,0,0,0
0,1405716783,853022,-10.8896,17.5571,-26.8157,33.8514,-8.26314,-0.482005,3.60622,9.02866,-2.00545,3.19823,2.6818,49.6467,6,0,0,0
0,1405716784,854027,-8.17112,18.9071,-23.4773,31.2318,-9.09759,0.21885,3.20599,9.64845,-2.6603,3.80969,0.862231,49.6697,7,0,0,0
0,1405716785,855029,3.44198,13.3659,-28.461,31.631,-8.45783,-1.22855,3.51967,9.24296,-1.81919,4.50952,1.12137,49.686,6,0,0,0
0,1405716786,856037,-3.28914,24.9702,-32.5639,41.1672,-8.51985,0.418203,3.56584,9.24543,0.475555,1.42763,1.65033,49.7219,8,0,0,0
0,1405716787,857042,4.386,0.931769,-7.76532,8.9669,-9.90661,-1.3259,3.35857,10.5441,1.74582,5.83915,-1.11236,49.7109,7,0,0,0
0,1405716788,858050,-4.82115,43.1794,-20.6117,48.0889,-9.41624,-0.880966,3.25455,10.0017,-1.02704,6.58798,-1.24032,49.6632,7,0,0,0
0,1405716789,859054,-8.06204,32.1149,-19.5515,38.4529,-9.63039,-0.279094,3.47159,10.2408,2.91941,5.83536,-0.980048,49.7123,6,0,0,0
0,1405716790,860061,-6.98258,33.342,-36.1983,49.7068,-8.27736,-1.22955,3.39547,9.03082,4.87207,4.39835,-2.95833,49.7782,7,0,0,0
0,1405716791,861068,0.651723,18.3811,-27.4963,33.0808,-9.52603,-1.18682,3.1666,10.1085,8.05975,8.86259,-3.65153,49.7084,6,0,0,0
0,1405716792,862070,11.2279,20.5745,-30.9156,38.7962,-9.14609,-1.37027,3.34365,9.83405,8.5025,3.28802,-6.75797,49.69,7,0,0,0
0,1405716793,863075,-4.90789,5.83637,-23.0817,24.3088,-8.93983,-0.968225,3.05981,9.49844,10.2477,1.5054,-4.84993,49.6752,7,0,0,0
0,1405716794,864084,-9.42024,14.3569,-26.9966,31.995,-8.17209,-0.892388,3.09426,8.78373,10.7449,2.78581,-1.92103,49.7213,8,0,0,0
0,1405716795,865093,-4.72375,14.3238,-21.8764,26.5718,-8.59605,-0.133491,3.41399,9.25014,6.69966,6.30241,-5.70907,49.6975,6,0,0,0
0,1405716796,866097,-1.80754,7.38744,-26.9422,27.995,-9.08167,-0.241075,3.43314,9.71191,4.16693,1.83388,-3.20426,49.7239,8,0,0,0
0,1405716797,867106,-11.7667,3.73567,-23.1504,26.2364,-8.84411,-0.223157,2.71664,9.25463,1.91611,3.84325,-1.92502,49.7026,6,0,0,0
0,1405716798,868111,-7.89195,12.9007,-12.3706,19.5382,-8.5693,-0.571093,2.88691,9.06053,3.36789,4.85234,-1.11692,49.7438,8,0,0,0
0,1405716799,869117,-6.96905,33.5984,-40.1073,52.7828,-8.74528,-0.525207,2.85569,9.2147,1.99999,5.19521,-1.54459,49.7849,6,0,0,0
0,1405716800,870127,0.0798489,0.0218292,-45.6971,45.6971,-8.91433,-0.510755,2.98205,9.41375,2.28201,4.68469,-1.06401,49.7606,7,0,0,0
0,1405716801,871130,4.69631,-23.9709,-34.1755,42.0075,-8.6975,-0.449273,2.95412,9.19648,1.54549,5.27552,-1.09973,49.7299,7,0,0,0
0,1405716802,872133,7.92294,-15.4977,-6.9023,18.7241,-8.87031,-0.542295,3.00203,9.38023,1.66704,3.7808,-1.32887,49.6935,6,0,0,0
0,1405716803,873136,8.13365,-0.924466,-7.89695,11.3742,-8.93628,-0.458952,2.99879,9.43719,1.30129,4.56798,-0.923605,49.748,8,0,0,0
0,1405716804,874139,8.39029,0.584334,-10.8305,13.7127,-8.92297,-0.46728,3.08039,9.45127,3.26918,4.83063,-2.37084,49.7906,7,0,0,0
0,1405716805,875143,7.70816,0.634757,-11.4285,13.7997,-8.77438,-0.48905,3.19254,9.34993,2.34752,5.4351,-2.5015,49.7984,8,0,0,0
0,1405716806,876150,7.53824,0.26065,-11.4025,13.6715,-8.78121,-0.509191,3.23416,9.3717,1.94746,4.23273,-2.27708,49.7073,6,0,0,0
0,1405716807,877160,7.81681,0.30517,-11.3039,13.7468,-8.78626,-0.483237,3.20729,9.36582,3.31412,5.32657,-1.88236,49.7124,8,0,0,0
0,1405716808,878169,7.65079,0.0394722,-11.5932,13.8902,-8.80268,-0.502842,3.15976,9.36611,1.75461,5.50829,-0.271638,49.7022,6,0,0,0
0,1405716809,879170,7.57065,0.0449107,-11.0639,13.4062,-8.8034,-0.498459,3.21306,9.38467,2.06192,6.04923,-0.849481,49.7695,7,0,0,0
0,1405716810,880175,7.93435,0.645434,-11.407,13.9101,-8.77121,-0.506028,3.21037,9.35397,2.47094,5.72919,-1.44311,49.7582,7,0,0,0
0,1405716811,881180,7.54567,0.0193177,-11.5371,13.7856,-8.77463,-0.487768,3.23502,9.36468,1.96121,4.30035,-0.532111,49.7363,8,0,0,0
0,1405716812,882181,7.73614,0.217069,-11.5266,13.8837,-8.79776,-0.506918,3.23841,9.38855,2.62799,4.3253,-3.06533,49.658,8,0,0,0
0,1405716813,883188,7.50118,-0.0279374,-11.2611,13.5308,-8.80466,-0.458683,3.20794,9.38207,2.47906,4.59012,-1.61546,49.7562,7,0,0,0
0,1405716814,884190,8.05691,0.564192,-11.2949,13.8855,-8.78923,-0.618022,3.22635,9.38306,3.24219,4.68573,-1.08669,49.7038,7,0,0,0
0,1405716815,885193,7.54921,0.188779,-11.2636,13.5608,-8.78228,-0.491767,3.26399,9.38211,1.61157,5.06502,-1.72268,49.7457,7,0,0,0
0,1405716816,886198,8.00088,0.603035,-11.2717,13.8358,-8.79942,-0.512512,3.17927,9.37018,1.17939,5.18984,-0.835468,49.7345,8,0,0,0
0,1405716817,887206,7.84518,0.381209,-11.4255,13.8648,-8.78546,-0.497375,3.1828,9.35745,2.95983,4.26883,-2.44857,49.8151,7,0,0,0
0,1405716818,888207,7.88242,0.422071,-11.1702,13.6779,-8.80691,-0.467114,3.20177,9.38249,1.91459,5.13712,-0.982123,49.7483,8,0,0,0
0,1405716819,889215,7.67118,-0.148241,-11.5484,13.8649,-8.76999,-0.468809,3.22575,9.35617,2.53859,5.63775,-2.01992,49.7027,7,0,0,0
0,1405716820,890222,7.94671,0.402421,-11.6192,14.0825,-8.79534,-0.478466,3.21321,9.37612,3.29313,4.49526,-2.51737,49.7539,8,0,0,0
0,1405716821,891227,7.68696,0.254302,-11.033,13.4492,-8.7784,-0.465569,3.20825,9.35788,3.25362,5.48353,-2.27941,49.7303,8,0,0,0
0,1405716822,892233,7.74598,0.767869,-11.0941,13.5524,-8.78293,-0.520731,3.19663,9.36106,2.35359,5.084,-0.857883,49.7587,7,0,0,0
0,1405716823,893240,7.71184,0.120346,-11.5918,13.9232,-8.78957,-0.495921,3.22213,9.37467,1.83243,5.60994,-1.7865,49.7483,8,0,0,0
0,1405716824,894249,7.96248,0.434895,-11.2519,13.7912,-8.79831,-0.551989,3.22559,9.38719,2.48698,5.09071,-1.10873,49.7499,7,0,0,0
0,1405716825,895257,7.79021,0.583038,-11.3691,13.7943,-8.76996,-0.496656,3.23566,9.361,1.89319,3.80206,-1.10811,49.7895,8,0,0,0
0,1405716826,896265,8.06285,0.76119,-10.9749,13.6396,-8.75348,-0.472147,3.22436,9.34039,2.88809,4.67071,-0.716137,49.7692,7,0,0,0
0,1405716827,897266,7.52599,0.117884,-11.598,13.8263,-8.74677,-0.496216,3.23935,9.34053,1.6208,5.66813,-2.32108,49.7335,8,0,0,0
0,1405716828,898274,7.87584,0.225939,-11.4025,13.8599,-8.76514,-0.53455,3.18324,9.34058,2.59919,4.40919,-2.0424,49.7131,8,0,0,0
0,1405716829,899278,8.03958,0.589361,-10.8985,13.5558,-8.78585,-0.453219,3.23646,9.37396,2.25567,3.93975,-1.50621,49.7353,7,0,0,0
0,1405716830,900284,7.58303,0.434921,-11.4466,13.7374,-8.77342,-0.459444,3.22132,9.3574,3.06845,6.62378,-1.40741,49.842,7,0,0,0
0,1405716831,901288,7.50976,0.149003,-11.1147,13.4148,-8.7768,-0.487977,3.20159,9.35524,3.00445,4.17305,-3.55679,49.7817,7,0,0,0
0,1405716832,902290,7.54653,0.0766145,-11.7302,13.9483,-8.80002,-0.483237,3.21808,9.38243,2.19913,4.48824,-1.14126,49.727,7,0,0,0
0,1405716833,903292,7.79101,0.50715,-11.3956,13.8136,-8.79086,-0.488604,3.21897,9.37442,1.68943,4.64113,-1.89245,49.6765,7,0,0,0
0,1405716834,904295,7.67667,0.362058,-11.3816,13.7333,-8.79976,-0.483217,3.20467,9.37759,2.09688,4.37295,-1.49437,49.7174,8,0,0,0
0,1405716835,905297,7.6321,0.450174,-11.0624,13.4472,-8.79688,-0.523014,3.2198,9.3822,2.25219,4.81202,-1.1027,49.7086,7,0,0,0
0,1405716836,906311,7.84464,0.248832,-11.5285,13.9466,-8.79371,-0.519674,3.21011,9.37573,1.68706,5.00278,-2.13285,49.6771,7,0,0,0
0,1405716837,907315,7.64466,0.156993,-11.1161,13.492,-8.76803,-0.501389,3.19435,9.34524,2.17536,6.16932,-1.95921,49.7213,7,0,0,0
0,1405716838,908323,7.25837,0.0915872,-11.152,13.3063,-8.79785,-0.484338,3.22692,9.38348,2.91071,5.14826,-1.3912,49.7562,7,0,0,0
0,1405716839,909326,7.52302,0.0406152,-11.2137,13.5035,-8.79403,-0.468161,3.17779,9.36229,2.60465,4.55206,-1.0688,49.6834,8,0,0,0
0,1405716840,910330,7.73419,0.564723,-11.5094,13.8782,-8.78917,-0.473071,3.22335,9.37354,3.05709,4.5474,-0.998207,49.6938,7,0,0,0
0,1405716841,911336,7.15655,-0.122856,-11.1858,13.2798,-8.79315,-0.478971,3.23152,9.38039,2.10448,5.36742,-1.57549,49.7119,8,0,0,0
0,1405716842,912339,8.06002,0.675526,-11.578,14.1234,-8.79178,-0.468059,3.24056,9.38167,3.32211,4.34244,-2.96389,49.7429,7,0,0,0
0,1405716843,913345,7.42293,0.19434,-11.2357,13.4677,-8.87656,-0.416219,3.1652,9.43319,4.03194,6.47442,-2.06685,49.8104,6,0,0,0
0,1405716844,914349,8.00751,0.48936,-11.2497,13.8172,-8.7713,-0.50048,3.2197,9.35696,4.09015,4.72675,-0.20886,49.7384,7,0,0,0
0,1405716845,915360,7.786,0.205877,-11.2779,13.706,-8.80337,-0.510068,3.19762,9.37999,2.38325,4.39573,-0.812124,49.7774,6,0,0,0
0,1405716846,916366,7.6444,-0.0632022,-11.2773,13.6242,-8.81237,-0.45692,3.22697,9.39574,3.12667,3.7912,-1.51022,49.8607,7,0,0,0
0,1405716847,917379,7.84024,0.196675,-11.3545,13.7997,-8.75474,-0.515168,3.24004,9.34926,1.01721,4.96406,-2.82356,49.8006,7,0,0,0
0,1405716848,918383,8.11719,0.499588,-11.6168,14.1806,-8.78598,-0.47962,3.21884,9.36934,3.21415,4.29663,-1.51175,49.7724,7,0,0,0
0,1405716849,919384,7.78306,-0.079835,-11.5945,13.9648,-8.76018,-0.391405,3.20381,9.33586,3.56033,5.39541,-2.63414,49.8577,8,0,0,0
0,1405716850,920390,7.72201,-0.0193011,-11.3094,13.6943,-8.79043,-0.497149,3.22189,9.37547,1.50054,5.0674,-1.94813,49.7735,6,0,0,0
0,1405716851,921396,7.98341,0.491255,-11.185,13.7506,-8.7979,-0.488418,3.22336,9.38252,1.85321,4.88656,-1.36915,49.7351,8,0,0,0
0,1405716852,922399,7.63764,-0.349455,-11.9655,14.1996,-8.76635,-0.509161,3.22052,9.35307,1.66647,4.17394,-1.40562,49.668,6,0,0,0
0,1405716853,923400,7.48938,-0.0732472,-11.9493,14.1025,-8.81004,-0.500106,3.21112,9.39033,1.24473,4.37001,-1.31815,49.8799,7,0,0,0
0,1405716854,924408,7.71176,-0.679767,-12.2055,14.4537,-8.77454,-0.466642,3.17149,9.34177,1.33857,5.21265,-2.1569,49.7809,7,0,0,0
0,1405716855,925413,7.77042,0.149268,-11.4031,13.7997,-8.7612,-0.462372,3.23599,9.35115,2.74466,5.50527,-2.16846,49.8437,8,0,0,0
0,1405716856,926422,7.71519,-0.018441,-11.0126,13.4463,-8.77681,-0.468422,3.23083,9.3643,1.84606,4.77958,-2.06121,49.7957,7,0,0,0
0,1405716857,927425,7.57373,0.212263,-11.4034,13.691,-8.77409,-0.529776,3.22268,9.36221,2.35003,5.4625,-0.81639,49.8302,8,0,0,0
0,1405716858,928430,7.18842,-0.859741,-11.784,13.8302,-8.78275,-0.485545,3.2118,9.3642,1.935,5.2871,-1.04698,49.798,8,0,0,0
0,1405716859,929432,7.85269,0.272083,-11.7059,14.0985,-8.79634,-0.447462,3.23691,9.38368,2.92482,4.83313,-0.571917,49.8041,7,0,0,0
