0,1405105215,utime,,bx(uT),by(uT),bz(uT),,B(uT),ax,,,,ay,,az,,,,,A,,,,,gx,,,gy,,,,gz,,,T(C),rate,,track,tilt,roll
0,1405105215,mins,,-1000,-1000,-1000,,,,,0,,,,-2000,-2000,-2000,,0,,,-2000,,-2000,-2000,-2000,,0,,0,,-180,-180
0,1405105215,maxs,,,1000,,1000,,1000,,,,1000,,,2000,,2000,,2000,2000,,2000,,,2000,,2000,,2000,,37000,360,180,180
0,1405105215,attr,,,,,F,,,,,F,,,,,F,,,,,,F,,,,,,F,,,,,F,,,,F,,,,,F,,,,,F,,,,,,F,,,,,F,,,,,F,,,,,I,F,F,F
0,1405105215,2865,3.0581,4.93884,4.40367,7.28947,-1.40552,-0.118776,0.640071,1.54896,0.0811594,0.892754,-0.324638,4.43333,0,0,0,0
0,1405105216,3910,5.77472,9.10041,7.95107,13.3934,-2.57678,-0.224355,1.17346,2.84027,-0.0830918,1.35845,-0.119807,8.45,1,0,0,0
0,1405105217,4913,19.6593,30.6824,25.7044,44.5939,-8.40356,-0.752079,3.79649,9.25196,3.19658,3.90714,-1.60695,44.4664,7,0,0,0
0,1405105218,5915,19.7366,30.2205,26.0205,44.4958,-8.40328,-0.762861,3.83884,9.27005,0.58423,3.52068,-0.436645,44.5264,7,0,0,0
0,1405105219,6916,19.9296,30.2389,25.8138,44.4739,-8.40192,-0.749598,3.83884,9.26773,1.81419,3.70903,-0.881934,44.7269,4,0,0,0
0,1405105220,7923,19.6551,30.1613,25.8221,44.3036,-8.43114,-0.745123,3.78858,9.27323,-0.520726,4.02314,-0.774767,44.6746,6,0,0,0
0,1405105221,8925,19.3092,29.6324,25.9786,43.8841,-8.41464,-0.742591,3.82676,9.27372,2.20217,4.01658,-1.56686,44.7061,7,0,0,0
0,1405105222,9930,19.3688,29.962,25.6618,43.9477,-8.409,-0.749533,3.84242,9.27563,1.83761,3.1514,-0.889474,44.7774,1,0,0,0
0,1405105223,10940,19.569,30.1397,26.21,44.4783,-8.42138,-0.75304,3.81822,9.27715,1.08554,5.76185,-1.04944,44.7342,8,0,0,0
0,1405105224,11951,19.1944,29.6269,25.926,43.7988,-8.38994,-0.757501,3.80068,9.24176,1.33406,3.9918,-1.38546,44.7867,9,0,0,0
0,1405105225,12954,19.421,29.7045,25.9831,43.9847,-8.4113,-0.72164,3.83847,9.27387,1.77621,4.74764,0.343447,44.7503,10,0,0,0
0,1405105226,13959,19.7228,30.4803,25.8424,44.5631,-8.44947,-0.73794,3.83765,9.30944,1.66279,5.19533,0.081755,44.7978,10,0,0,0
0,1405105227,14961,19.5757,29.5068,26.3034,44.1104,-8.36465,-0.74997,3.81868,9.22562,0.600137,3.48218,-0.414831,44.807,11,0,0,0
0,1405105228,15967,19.3165,30.0811,25.936,44.1664,-8.41575,-0.742522,3.83118,9.27654,1.47107,4.93081,-1.03654,44.8108,11,0,0,0
0,1405105229,16969,19.5369,29.7931,25.8203,44,-8.39609,-0.741097,3.84559,9.26456,1.60109,4.60314,-1.22943,44.8231,7,0,0,0
0,1405105230,17972,19.7051,30.1938,26.0316,44.4702,-8.40946,-0.723416,3.86075,9.28158,1.31759,2.55486,-2.00758,44.8885,11,0,0,0
0,1405105231,18977,19.4872,30.1425,25.7827,44.1936,-8.41007,-0.747674,3.77221,9.24758,1.51953,5.4885,-0.265822,45.0253,11,0,0,0
0,1405105232,19978,19.2887,30.0167,25.7751,44.016,-8.3939,-0.720155,3.82654,9.25303,1.92509,5.88607,-1.74766,44.8934,11,0,0,0
0,1405105233,20980,19.4244,30.3642,25.7807,44.3163,-8.41687,-0.761359,3.82882,9.2781,1.69299,4.42378,-0.014003,44.8813,10,0,0,0
0,1405105234,21981,19.7005,30.218,25.6976,44.29,-8.40988,-0.747345,3.83483,9.27311,1.82225,3.87769,-0.66702,44.9693,11,0,0,0
0,1405105235,22983,19.29,29.9651,26.4004,44.3508,-8.42946,-0.745183,3.82664,9.28732,0.828611,3.82097,-2.26957,45.0388,9,0,0,0
0,1405105236,23987,19.7239,29.7029,25.8289,44.0276,-8.40804,-0.726542,3.82954,9.26759,2.53726,4.16856,-1.30544,44.9723,10,0,0,0
0,1405105237,24989,19.456,30.058,25.8687,44.1725,-8.39805,-0.754549,3.82443,9.25866,2.64486,4.42333,-0.0579074,45.1228,10,0,0,0
0,1405105238,25990,19.3407,30.0751,25.475,43.9039,-8.42901,-0.739667,3.86175,9.30099,2.2042,3.77775,-1.80934,45.0706,11,0,0,0
0,1405105239,26994,19.7276,30.2186,25.8031,44.3638,-8.41414,-0.740658,3.82321,9.27164,2.23969,5.11295,-0.757534,45.0817,11,0,0,0
0,1405105241,28225,19.6354,30.1975,25.8298,44.324,-8.4041,-0.74259,3.81948,9.26114,1.85481,5.21151,-0.770408,45.078,8,0,0,0
0,1405105242,29230,19.6391,30.2475,25.8539,44.3737,-8.4205,-0.734825,3.83042,9.27992,2.61584,4.04759,-1.29387,45.2237,7,0,0,0
0,1405105243,30231,19.2152,30.4235,25.6923,44.2144,-8.42325,-0.750387,3.83587,9.28591,2.04416,4.83502,-0.706033,45.0835,10,0,0,0
0,1405105244,31234,20.2481,30.5205,26.2271,45.0483,-8.40014,-0.747602,3.84542,9.26868,1.88122,4.62337,-0.169569,45.0901,11,0,0,0
0,1405105246,33266,19.7096,30.2432,26.1064,44.5496,-8.42434,-0.745254,3.8232,9.28126,2.06706,4.43585,-0.787771,45.0637,3,0,0,0
0,1405105247,34273,19.3532,30.1733,25.6764,44.0937,-8.4084,-0.745735,3.79234,9.25414,2.31427,3.85061,-0.389252,45.1133,6,0,0,0
0,1405105248,35279,19.6523,30.0296,26.2451,44.4612,-8.40624,-0.757346,3.83711,9.27157,-0.116651,4.72558,-0.428418,45.1745,7,0,0,0
0,1405105249,36283,19.7007,30.2459,26.1359,44.5648,-8.42226,-0.751754,3.82783,9.28181,1.51919,4.76375,-1.24983,45.136,6,0,0,0
0,1405105250,37285,19.9289,30.4867,25.7891,44.6282,-8.41596,-0.738283,3.82544,9.27402,3.52335,4.25891,-1.49972,45.1022,6,0,0,0
0,1405105251,38293,19.5892,30.1738,25.7807,44.2588,-8.4128,-0.742619,3.82195,9.27006,0.766876,4.59796,-0.380543,45.2077,6,0,0,0
0,1405105252,39298,19.6126,30.1861,25.8962,44.3448,-8.42809,-0.739176,3.84796,9.29441,1.12379,5.20722,-0.182716,45.2751,6,0,0,0
0,1405105253,40307,19.6712,29.9036,25.8708,44.1643,-8.40656,-0.740385,3.8289,9.26709,0.900379,4.56546,-0.65712,45.277,7,0,0,0
0,1405105254,41314,20.0073,30.4895,25.8275,44.6874,-8.40241,-0.754424,3.81466,9.25858,2.73667,4.53999,-1.06394,45.2784,6,0,0,0
0,1405105255,42321,19.8542,30.3792,26.1967,44.7588,-8.42336,-0.763092,3.81768,9.27954,0.438122,4.24549,-0.89492,45.2523,7,0,0,0
0,1405105256,43329,19.605,30.2374,25.8797,44.3668,-8.41656,-0.726112,3.81316,9.26855,1.26522,4.77307,-0.0302231,45.3822,5,0,0,0
0,1405105257,44336,19.622,30.1671,25.9791,44.3846,-8.41064,-0.734899,3.84022,9.27503,1.68863,4.08004,-0.452817,45.3017,7,0,0,0
0,1405105258,45352,19.6355,30.3139,26.0901,44.5553,-8.40543,-0.748943,3.79949,9.25463,1.00419,4.46907,-0.277541,45.3325,3,0,0,0
0,1405105259,46357,19.869,30.1786,26.2376,44.6535,-8.41351,-0.755095,3.81834,9.27022,1.98943,3.90784,-1.54334,45.3909,6,0,0,0
0,1405105260,47364,19.7356,30.2074,26.2459,44.6187,-8.39723,-0.769625,3.85507,9.27186,0.431325,3.96385,-0.531418,45.3876,7,0,0,0
0,1405105261,48371,19.448,30.1276,25.8918,44.2299,-8.3928,-0.782484,3.82072,9.25469,0.790283,3.69898,-0.815211,45.449,6,0,0,0
0,1405105262,49375,19.7725,30.2274,26.0212,44.5169,-8.40887,-0.743304,3.85433,9.27995,1.44763,3.99555,-0.690715,45.3645,6,0,0,0
0,1405105263,50378,19.5491,29.9615,25.8559,44.1405,-8.41476,-0.735197,3.83425,9.27632,-0.0073776,5.31375,-0.404421,45.3606,6,0,0,0
0,1405105264,51384,19.7498,30.2302,25.9672,44.4771,-8.41977,-0.743438,3.85031,9.28817,-0.592498,4.24591,-0.759999,45.4986,6,0,0,0
0,1405105265,52390,19.2167,29.6127,25.7975,43.7231,-8.40708,-0.738819,3.82983,9.26781,1.88122,5.89031,-0.835675,45.4716,6,0,0,0
0,1405105266,53403,19.4645,29.8211,25.3481,43.7114,-8.41676,-0.751412,3.81996,9.27355,1.15631,3.80289,-0.565455,45.4506,6,0,0,0
0,1405105267,54410,19.4668,29.6051,25.2833,43.5278,-8.41474,-0.761437,3.80731,9.26732,2.03939,5.36078,-1.83789,45.4511,6,0,0,0
0,1405105268,55429,19.5945,29.8077,25.2322,43.6933,-8.42529,-0.765419,3.83784,9.2898,-0.885739,4.42542,-0.981367,45.4905,6,0,0,0
0,1405105269,56436,19.5111,29.9748,25.2954,43.8067,-8.42574,-0.735926,3.80908,9.27598,3.19213,4.94197,-0.138148,45.4391,6,0,0,0
0,1405105271,58479,19.3605,29.8103,25.6173,43.8147,-8.41056,-0.749931,3.8139,9.2653,1.92753,3.94278,-0.533497,45.4139,4,0,0,0
0,1405105272,59482,19.357,29.449,25.6563,43.5911,-8.39937,-0.740793,3.81718,9.25576,1.20705,4.83176,-1.53573,45.4754,6,0,0,0
0,1405105273,60493,19.3048,29.9217,25.6187,43.8669,-8.41303,-0.738407,3.78877,9.2563,1.43273,5.79569,-1.90428,45.5018,6,0,0,0
0,1405105274,61499,19.4588,29.8304,26.1372,44.1775,-8.4047,-0.742376,3.82477,9.26385,1.54164,4.21657,-1.5818,45.5046,6,0,0,0
0,1405105275,62507,19.5185,29.6001,25.2981,43.5561,-8.39734,-0.758004,3.81205,9.2532,1.69423,4.29949,-0.849341,45.521,7,0,0,0
0,1405105276,63511,20.2689,30.5962,24.8184,44.3047,-8.42273,-0.757686,3.79411,9.26886,0.744335,4.8747,-1.48135,45.5185,6,0,0,0
0,1405105277,64513,19.6442,30.615,24.5214,43.8688,-8.41547,-0.756244,3.81844,9.27214,1.33224,5.70799,0.129859,45.6144,5,0,0,0
0,1405105278,65523,17.8578,27.5392,16.597,36.78,-8.3891,-0.736627,3.84771,9.25875,2.02693,5.39685,-0.580784,45.6598,7,0,0,0
0,1405105279,66526,16.687,28.0359,17.4469,36.9981,-8.41944,-0.737376,3.82779,9.27808,1.30348,4.14978,-1.36176,45.5853,6,0,0,0
0,1405105280,67536,15.5297,29.1536,23.1393,40.3303,-8.40942,-0.75319,3.80415,9.26052,1.54084,4.43336,-0.81621,45.5104,5,0,0,0
0,1405105281,68542,15.656,29.2788,22.8114,40.283,-8.41735,-0.745812,3.83504,9.27985,0.927497,3.64791,-0.730877,45.5192,7,0,0,0
0,1405105282,69546,15.6356,29.5227,22.8443,40.4713,-8.409,-0.753727,3.84092,9.27535,-1.21293,4.36545,-0.635986,45.562,6,0,0,0
0,1405105283,70548,14.5518,28.9377,21.9942,39.1521,-8.39162,-0.776986,3.81674,9.25151,2.20379,4.62617,-0.469225,45.574,6,0,0,0
0,1405105284,71556,15.6321,29.5139,22.8132,40.446,-8.41874,-0.721598,3.83786,9.28036,0.928048,4.46923,0.552918,45.5424,10,0,0,0
0,1405105285,72559,14.6672,29.1938,22.1595,39.4772,-8.41549,-0.711595,3.79193,9.25773,2.04912,4.92372,-0.895946,45.4877,11,0,0,0
0,1405105286,73561,15.5149,25.0258,1.18877,29.4689,-8.4438,-0.748639,3.81025,9.29388,2.85556,4.26209,-0.655918,45.5565,10,0,0,0
0,1405105287,74565,14.8195,27.0678,17.0446,35.2534,-8.3957,-0.733118,3.81265,9.24995,1.27774,3.82894,-0.583139,45.6339,11,0,0,0
0,1405105288,75573,15.3974,27.3286,17.1107,35.731,-8.40963,-0.748221,3.80887,9.26224,0.516022,5.37385,-1.29875,45.6313,7,0,0,0
0,1405105289,76580,15.4417,27.4996,17.1451,35.8975,-8.42853,-0.759986,3.80912,9.28047,1.75045,4.42745,-0.888634,45.7151,6,0,0,0
0,1405105290,77589,15.3274,27.5376,17.2391,35.9226,-8.55702,-0.654149,3.76172,9.37022,1.2748,3.79976,-0.535833,45.5663,7,0,0,0
0,1405105291,78596,14.8715,26.5388,17.7081,35.2001,-8.27712,-0.753757,4.002,9.22469,3.37515,4.71432,-1.72298,45.7613,6,0,0,0
0,1405105292,79606,14.4124,26.4178,17.3876,34.7555,-8.40641,-0.740678,3.78478,9.24884,1.35097,4.07914,-0.527211,45.5716,6,0,0,0
0,1405105293,80613,14.5989,26.1411,18.1017,34.988,-8.41489,-0.736322,3.81964,9.2705,1.12266,4.98057,-1.11536,45.7135,6,0,0,0
0,1405105294,81626,14.6093,26.575,17.113,34.8213,-8.41305,-0.738615,3.81568,9.26739,1.29753,4.11384,-1.14196,45.7426,6,0,0,0
0,1405105295,82632,14.7063,26.4918,17.4456,34.9634,-8.43062,-0.745297,3.80864,9.28098,1.10746,4.62447,-0.298827,45.7917,6,0,0,0
0,1405105296,83643,14.5894,26.5304,18.1923,35.3224,-8.40146,-0.746829,3.83804,9.26676,0.314538,4.43788,-2.27294,45.771,7,0,0,0
0,1405105297,84650,14.4885,26.1931,17.5737,34.7107,-8.40148,-0.75619,3.83914,9.26799,1.30044,5.15448,-0.559094,45.7814,7,0,0,0
0,1405105298,85667,14.4282,26.3472,17.2297,34.6296,-8.41813,-0.741597,3.81706,9.2728,0.819937,5.13156,-1.40437,45.8193,7,0,0,0
0,1405105299,86682,14.437,26.0866,17.4003,34.5211,-8.41303,-0.761023,3.8376,9.27822,1.17144,4.35215,-2.18939,45.8605,4,0,0,0
0,1405105300,87688,14.3789,26.4871,17.5915,34.8967,-8.41823,-0.737827,3.82056,9.27403,3.26904,4.71819,-1.56384,45.7886,7,0,0,0
0,1405105301,88695,14.0966,26.2633,17.258,34.4429,-8.41275,-0.746063,3.79987,9.26121,2.06135,4.45856,-1.83697,45.6444,6,0,0,0
0,1405105302,89711,14.285,26.4263,17.3229,34.677,-8.41294,-0.755536,3.8361,9.27707,1.06359,4.68192,-1.58551,45.952,7,0,0,0
0,1405105303,90715,14.306,26.4666,17.1839,34.6472,-8.42346,-0.728371,3.83061,9.28217,-0.54693,4.59537,-0.86153,45.9189,6,0,0,0
0,1405105304,91721,14.3972,26.5237,17.2216,34.7472,-8.37001,-0.741565,3.79844,9.22145,0.0779758,3.63829,-1.1964,45.9067,5,0,0,0
0,1405105305,92731,14.3008,26.538,17.8457,35.0321,-8.43784,-0.785554,3.77519,9.27719,2.98572,4.1194,0.0519809,45.8534,6,0,0,0
0,1405105306,93733,14.3553,26.2848,17.476,34.6752,-8.39838,-0.757152,3.81571,9.25557,1.47956,4.56702,-1.31341,45.845,6,0,0,0
0,1405105307,94736,14.5203,26.893,17.6266,35.2813,-8.42076,-0.761398,3.81017,9.27396,1.66665,4.87521,-0.272087,45.9335,7,0,0,0
0,1405105308,95743,14.5724,26.5457,17.8324,35.1429,-8.42911,-0.635046,3.81044,9.27214,2.36412,4.93229,-1.9029,45.9319,7,0,0,0
0,1405105309,96752,14.284,26.6215,18.0827,35.2097,-8.3892,-0.711705,3.8471,9.25665,0.374418,4.86681,-1.37367,45.8411,6,0,0,0
0,1405105310,97754,14.5565,26.4342,17.956,35.1152,-8.37621,-0.716568,3.86531,9.25284,2.67859,4.43194,-1.59777,45.8873,7,0,0,0
0,1405105311,98758,14.3829,26.4985,17.7253,34.9746,-8.40141,-0.706056,3.82959,9.26002,2.53817,3.97691,-1.73462,45.8325,7,0,0,0
0,1405105312,99766,14.1636,26.3151,17.7341,34.7504,-8.42033,-0.713455,3.87845,9.29803,0.12986,3.9995,0.0195002,45.8469,6,0,0,0
0,1405105313,100773,14.3187,26.4137,17.8101,34.9272,-8.42369,-0.723131,3.80627,9.27196,1.79549,5.89076,-1.25213,45.8754,7,0,0,0
0,1405105314,101778,14.1667,26.1407,18.0176,34.7659,-8.42755,-0.691743,3.86308,9.29653,1.16463,4.4268,-1.29766,45.9812,5,0,0,0
0,1405105315,102792,14.3434,26.5315,17.8658,35.0548,-8.42183,-0.79086,3.811,9.27774,2.14302,4.75317,-1.46376,45.9223,7,0,0,0
0,1405105316,103801,14.2469,26.3531,17.6991,34.7954,-8.42188,-0.754548,3.84036,9.28686,-0.0847422,3.80559,0.170645,45.8795,6,0,0,0
0,1405105317,104808,14.2414,26.4708,17.9665,35.0188,-8.39644,-0.721061,3.81118,9.24906,1.4309,4.6315,-1.08865,45.8924,7,0,0,0
0,1405105318,105819,14.4763,26.6869,17.6717,35.1289,-8.42711,-0.652349,3.74731,9.24576,1.1892,4.2464,-1.66896,46.0692,3,0,0,0
0,1405105319,106823,14.4838,26.4769,17.9464,35.1124,-8.36796,-0.762167,3.90632,9.26623,3.87314,5.07852,-1.3424,46.0014,6,0,0,0
0,1405105320,107836,13.9941,26.1789,17.6706,34.5459,-8.41825,-0.734394,3.83626,9.28026,1.49247,4.86044,-1.30394,46.1382,6,0,0,0
0,1405105321,108841,14.1204,26.2535,17.782,34.7107,-8.4133,-0.762973,3.81934,9.27109,0.940086,3.4394,-2.82315,46.0771,6,0,0,0
0,1405105322,109846,13.7938,25.7702,18.1418,34.402,-8.45778,-0.716208,3.83324,9.31347,2.56283,4.73031,-0.848797,46.1328,11,0,0,0
0,1405105323,110851,14.239,26.2932,18.1508,34.979,-8.42064,-0.48863,3.80066,9.25154,0.673011,4.5877,-1.08853,46.1272,10,0,0,0
0,1405105324,111857,14.1339,26.2892,17.9269,34.8176,-8.3945,-0.747826,3.79607,9.24321,2.05036,4.18006,-0.697539,46.1677,9,0,0,0
0,1405105325,112858,14.2604,26.3821,17.9854,34.9693,-8.40604,-0.692775,3.80796,9.25429,1.7637,4.01895,-1.14285,46.0861,10,0,0,0
0,1405105326,113863,14.1568,26.0175,17.7838,34.5484,-8.41252,-0.736836,3.82079,9.26886,1.81776,5.30065,-1.10251,46.1605,9,0,0,0
0,1405105327,114869,13.9316,26.0713,17.8466,34.5297,-8.42136,-0.741822,3.83001,9.28109,1.75874,4.0559,-2.62485,46.1914,10,0,0,0
0,1405105328,115875,14.2383,25.996,18.2651,34.8158,-8.40136,-0.745885,3.86009,9.27575,0.775869,5.36162,-0.900431,46.1719,10,0,0,0
0,1405105329,116881,14.2748,26.4695,17.8787,34.9865,-8.4198,-0.72979,3.79947,9.26616,1.31619,4.77855,-0.607217,46.1586,10,0,0,0
0,1405105331,118181,15.4825,28.3226,18.5449,37.2262,-8.35234,-0.766209,3.84249,9.22569,0.568634,5.36332,-1.23967,46.1591,3,0,0,0
0,1405105332,119182,16.3452,18.7949,19.1365,31.4105,-8.35878,-0.685676,4.0255,9.3029,-0.171984,4.0699,0.925112,46.1347,5,0,0,0
0,1405105333,120183,21.31,19.1349,18.1128,33.8871,-8.28936,-0.718633,4.01566,9.2388,-3.23615,4.1705,2.22325,46.316,6,0,0,0
0,1405105334,121189,24.727,27.2547,14.5729,39.5805,-8.00676,-0.719833,4.15951,9.0514,-8.5783,5.14441,5.19201,46.1749,6,0,0,0
0,1405105335,122194,36.111,49.0703,-2.58317,60.9801,-8.3328,-1.01198,3.8593,9.23872,-14.3315,3.27797,9.48818,46.3346,6,0,0,0
0,1405105336,123200,39.0629,36.3939,-13.2584,55.0111,-8.56183,0.0029418,4.09843,9.49221,-21.9574,1.99551,12.3656,46.3697,5,0,0,0
0,1405105337,124202,39.5305,19.1943,-13.9004,46.0901,-8.46031,0.163006,3.98224,9.3521,-27.5726,5.41366,15.3823,46.4583,6,0,0,0
0,1405105338,125209,28.2093,12.7594,-13.7221,33.8654,-9.58698,1.02422,3.96585,10.4253,-33.9349,4.00521,18.4928,46.5054,5,0,0,0
0,1405105339,126211,41.1506,9.49007,-27.9104,50.6204,-8.56143,-0.205753,3.45074,9.23299,-34.4087,1.52194,21.8301,46.3868,6,0,0,0
0,1405105340,127219,32.5654,29.2867,-31.0629,53.6947,-8.302,0.751871,3.29442,8.96336,-38.6913,8.52108,22.998,46.5345,5,0,0,0
0,1405105341,128896,33.7156,18.278,-42.807,57.4741,-8.32748,0.915963,3.51262,9.08429,-41.5017,2.68782,23.3383,46.5115,1,0,0,0
0,1405105342,129901,12.4345,9.31877,-40.5272,43.4041,-8.65819,0.337548,3.62014,9.39061,-33.9186,2.75468,20.0644,46.5578,6,0,0,0
0,1405105343,130902,-3.43982,9.17809,-41.2744,42.4222,-8.55428,0.0528728,3.34662,9.18577,-28.1986,6.29522,14.9644,46.5181,6,0,0,0
0,1405105344,131906,-9.48743,12.047,-37.1879,40.2254,-8.29673,-0.044046,3.47307,8.99444,-13.824,7.02074,5.8434,46.5253,10,0,0,0
0,1405105345,132913,-11.9255,12.4382,-36.9654,40.7844,-8.58374,-1.93346,2.79273,9.23137,-1.31767,5.59999,-0.267941,46.4419,10,0,0,0
0,1405105346,133917,-8.71486,17.8862,-38.3647,43.2171,-8.37004,-0.765326,2.64822,8.81229,0.377105,4.58762,-0.85493,46.4914,10,0,0,0
0,1405105347,134918,-10.2371,4.47505,-34.286,36.0604,-9.21216,-0.555355,2.60123,9.58846,1.34088,4.14816,-0.869823,46.4824,9,0,0,0
0,1405105348,135925,-5.62075,21.4408,-32.6152,39.4341,-8.71114,-0.563913,3.15347,9.2815,2.46107,4.53101,-1.61844,46.5505,10,0,0,0
0,1405105349,136926,-10.0093,11.7682,-33.9487,37.2986,-8.37354,-0.469441,3.59143,9.12331,1.0708,3.51248,-0.693294,46.5338,10,0,0,0
0,1405105350,137929,-10.127,13.1542,-34.4248,38.2185,-8.54795,-0.47389,3.66384,9.31213,1.37003,5.41396,-1.78758,46.5657,10,0,0,0
0,1405105351,138932,-10.3148,13.3651,-34.3872,38.308,-8.49927,-0.403105,3.66538,9.26473,2.39358,4.33037,-0.712917,46.5693,11,0,0,0
0,1405105352,139935,-10.6916,12.7219,-35.3786,39.0871,-8.53276,-0.384215,3.64015,9.28473,2.21233,4.10804,-1.36225,46.6441,11,0,0,0
0,1405105353,140939,-9.82471,13.3578,-34.4082,38.1953,-8.48835,-0.407681,3.70205,9.26949,1.04723,4.85568,-0.58991,46.6225,11,0,0,0
0,1405105354,141941,-10.0334,13.4896,-34.0868,38.0072,-8.48268,-0.368864,3.70864,9.26531,1.67103,4.61848,-1.14924,46.5087,11,0,0,0
0,1405105355,142965,-10.0607,13.2548,-34.2264,38.0573,-8.48534,-0.392026,3.69943,9.26501,2.26285,4.60865,-1.36939,46.5536,11,0,0,0
0,1405105356,143968,-10.1973,13.357,-35.3083,39.1034,-8.48357,-0.407309,3.70777,9.26738,2.0602,5.1684,-1.90464,46.5962,10,0,0,0
0,1405105357,144973,-10.3663,12.7927,-34.9988,38.6785,-8.49991,-0.398133,3.74368,9.29635,1.39885,5.08191,-1.15706,46.6814,10,0,0,0
0,1405105358,145979,-10.8321,12.5654,-35.3825,39.0787,-8.47034,-0.362681,3.69556,9.24854,2.32937,4.30692,-1.85573,46.568,11,0,0,0
0,1405105359,146980,-10.5973,13.0353,-35.1528,38.9608,-8.48325,-0.484413,3.66639,9.25433,1.42496,4.01078,-0.834679,46.6086,11,0,0,0
0,1405105360,147981,-10.5974,13.3472,-35.2416,39.1462,-8.47535,-0.346127,3.70103,9.25467,0.901586,5.39946,-0.948124,46.7148,11,0,0,0
0,1405105361,148984,-10.0344,13.3217,-34.4641,38.2875,-8.47324,-0.401932,3.73252,9.26763,1.9021,4.01227,-0.274478,46.739,4,0,0,0
0,1405105362,149986,-10.1104,13.3576,-34.2201,38.1006,-8.49208,-0.364064,3.71065,9.27453,-0.985535,4.75001,0.0410438,46.8136,6,0,0,0
0,1405105363,150999,-9.90456,13.7865,-34.2752,38.2486,-8.50542,-0.386688,3.68829,9.27875,1.73651,4.28397,-1.97986,46.7717,7,0,0,0
0,1405105365,152003,-10.3535,13.3894,-34.2579,38.2109,-8.49201,-0.395743,3.69836,9.27085,0.398496,6.09689,0.0830661,46.6983,6,0,0,0
0,1405105366,153023,-10.6805,12.9031,-35.4196,39.1805,-8.48718,-0.397229,3.676,9.25759,1.12551,4.10478,-1.40442,46.7871,4,0,0,0
0,1405105367,154026,-9.38568,13.0011,-34.3237,37.8845,-8.47683,-0.372325,3.73799,9.27188,2.337,3.93843,-0.601557,46.7752,5,0,0,0
0,1405105368,155038,-9.42393,12.8257,-34.4807,37.9767,-8.49261,-0.366751,3.71399,9.27645,1.62666,5.02166,-1.45751,46.8157,7,0,0,0
0,1405105369,156049,-9.45763,12.9999,-33.0841,36.7831,-8.48591,-0.374591,3.70324,9.26634,1.12233,5.74591,0.0126371,46.7248,5,0,0,0
0,1405105370,157059,-9.49172,13.0004,-33.2453,36.9371,-8.49839,-0.378716,3.69933,9.27637,1.79269,5.40392,-1.21975,46.7795,6,0,0,0
0,1405105371,158068,-8.98032,12.6794,-33.4639,36.8951,-8.48153,-0.40341,3.71358,9.26768,1.87266,4.25533,-1.90755,46.8556,5,0,0,0
0,1405105372,159071,-8.7845,13.1886,-33.665,37.208,-8.46488,-0.367715,3.7218,9.25425,1.61019,3.49268,-2.03075,46.8589,6,0,0,0
0,1405105373,160079,-9.16374,12.1762,-33.5224,36.8237,-8.46661,-0.380614,3.78917,9.28365,0.569065,6.01156,-1.41004,46.9152,5,0,0,0
0,1405105374,161091,-8.87395,13.0899,-33.1556,36.734,-8.47346,-0.38214,3.73545,9.26817,1.31082,4.62308,-1.46226,46.9279,5,0,0,0
0,1405105375,162098,-9.2001,12.4296,-33.5673,36.9581,-8.48534,-0.402172,3.70991,9.26964,2.07235,3.46321,-1.815,46.9512,7,0,0,0
0,1405105376,163107,-9.15399,12.297,-33.4302,36.7776,-8.51823,-0.381646,3.7083,9.29824,2.90365,4.71237,-1.11887,46.9739,7,0,0,0
0,1405105377,164113,-8.71044,12.5624,-33.3207,36.66,-8.48799,-0.383695,3.72346,9.27671,-0.242751,3.41031,-0.586208,46.9458,5,0,0,0
0,1405105378,165114,-8.55727,13.1734,-33.4013,36.9109,-8.50728,-0.408998,3.70557,9.28828,0.758111,5.46415,-1.77312,47.1444,6,0,0,0
0,1405105379,166118,-9.10577,12.4357,-33.4417,36.8227,-8.47341,-0.41273,3.73929,9.271,2.5931,4.41318,0.502894,47.1071,6,0,0,0
0,1405105380,167120,-9.11474,12.607,-33.5682,36.9978,-8.45162,-0.397783,3.72849,9.24607,0.934939,5.10245,-1.28193,46.9907,7,0,0,0
0,1405105381,168122,-8.99043,12.3274,-33.7412,37.0305,-8.49186,-0.391783,3.74868,9.29074,0.218719,5.49638,-1.78376,47.0081,6,0,0,0
0,1405105382,169125,-8.6071,13.1997,-33.0026,36.5717,-8.49608,-0.393662,3.70874,9.27864,1.75368,4.09087,-1.1257,47.0907,6,0,0,0
0,1405105383,170129,-8.97722,12.4812,-33.3825,36.7527,-8.51391,-0.367324,3.70433,9.29213,1.81283,5.12924,-2.09394,47.1133,7,0,0,0
0,1405105384,171140,-11.0338,6.84241,-33.7708,36.1805,-8.42068,-0.373827,4.01178,9.33498,1.73079,3.57077,-0.743929,47.1038,6,0,0,0
0,1405105385,172152,-7.81859,3.80311,-31.6107,32.7846,-8.3162,-0.516924,4.08108,9.27801,1.29873,4.65931,-1.57094,47.0768,4,0,0,0
0,1405105386,173153,-4.12131,21.0845,-31.4043,38.0496,-8.15464,-0.691912,4.24085,9.21747,0.190237,4.55243,-0.28047,47.0742,7,0,0,0
0,1405105387,174158,-5.84282,15.138,-31.8921,35.7827,-8.08152,-0.139889,4.19391,9.10601,-0.732375,5.92899,-1.82231,47.128,6,0,0,0
0,1405105388,175163,-3.84918,16.5648,-29.7167,34.2388,-8.47535,-0.053827,4.16991,9.44577,-0.264043,3.83777,-1.20713,47.158,6,0,0,0
0,1405105389,176170,-2.28918,24.4286,-29.3772,38.2755,-8.0515,-0.426689,3.92807,8.96875,0.710012,-0.349546,0.530309,47.137,11,0,0,0
0,1405105390,177176,4.88528,17.6759,-24.3906,30.5157,-8.22366,0.0867122,4.54208,9.39503,1.17777,5.43727,-1.32898,47.1543,9,0,0,0
0,1405105391,178183,8.78328,17.8688,-23.9456,31.1422,-8.7503,1.03158,5.31508,10.2899,1.43444,4.87195,-0.899065,47.2569,10,0,0,0
0,1405105392,179187,9.96335,24.1781,-23.4307,35.112,-8.25106,-1.20689,4.55457,9.50162,2.32098,-1.47549,-2.24752,47.1767,11,0,0,0
0,1405105393,180191,8.04279,32.4842,-26.4737,42.6704,-8.0895,-0.239404,4.28418,9.15705,0.921345,5.67344,-0.864031,47.2438,11,0,0,0
0,1405105394,181194,3.89487,20.9741,-26.217,33.7996,-8.62999,-0.0883065,4.44972,9.71002,0.359046,5.86553,-0.848399,47.2446,11,0,0,0
0,1405105395,182196,8.15027,6.19086,-22.7657,24.9606,-8.81734,-1.03771,4.63336,10.0145,1.97371,6.92179,-1.51224,47.2253,11,0,0,0
0,1405105396,183199,6.24242,32.8091,-26.5473,42.6633,-8.08884,-0.542843,4.41442,9.23099,2.29134,4.3738,-0.0065737,47.2826,11,0,0,0
0,1405105397,184204,5.73679,25.5405,-26.798,37.4615,-8.33269,-0.0349437,3.94472,9.21932,0.818572,11.2896,-2.77012,47.1559,10,0,0,0
0,1405105398,185210,19.2204,37.054,-23.3281,47.8186,-8.45822,0.561328,4.66656,9.67643,2.70048,2.97451,2.08841,47.2809,11,0,0,0
0,1405105399,186216,9.0032,31.551,-29.103,43.8578,-8.44251,-0.489779,4.46588,9.56347,0.0104935,3.15625,-1.77825,47.2406,11,0,0,0
0,1405105400,187222,11.0405,31.4533,-26.21,42.4048,-8.55596,-0.514056,4.81543,9.83143,3.3914,5.49358,-4.02826,47.2408,9,0,0,0
0,1405105401,188228,11.7958,37.7822,-25.6491,47.1647,-8.1151,-0.278441,4.23653,9.15863,-1.5448,2.97429,-0.931,47.1752,11,0,0,0
0,1405105402,189231,20.0804,36.4152,-22.1252,47.1043,-8.33413,-0.50367,4.23459,9.36179,1.05005,5.59185,-1.57016,47.2888,11,0,0,0
0,1405105403,190234,17.4774,9.8089,-17.4054,26.5447,-8.26808,-0.617432,4.31757,9.34793,1.72491,6.00545,-1.40605,47.1942,10,0,0,0
0,1405105404,191239,15.7507,43.8279,-22.7303,51.8231,-8.32262,-0.558597,3.62696,9.09576,1.11493,3.75613,-2.09912,47.3065,10,0,0,0
0,1405105405,192240,23.636,18.8499,-18.4729,35.4292,-8.38741,0.140483,5.27437,9.90895,2.49631,8.3123,-3.7048,47.2429,11,0,0,0
0,1405105406,193244,18.9967,31.181,-21.2033,42.2222,-8.59794,0.807501,3.84844,9.45448,1.38444,4.09891,0.629777,47.1896,10,0,0,0
0,1405105407,194248,24.0914,30.355,-19.3926,43.3347,-7.65838,-2.06331,3.41701,8.63621,1.775,4.14515,-2.35119,47.1748,10,0,0,0
0,1405105408,195254,23.0167,20.719,-19.5064,36.5999,-8.42706,-1.19131,4.05751,9.42857,2.36266,2.60025,1.06991,47.2532,10,0,0,0
0,1405105409,196256,18.8077,36.7582,-21.8959,46.7367,-8.21511,-0.456177,4.09838,9.192,0.757371,6.91229,-2.15071,47.249,10,0,0,0
0,1405105410,197258,20.0227,42.7936,-22.471,52.3178,-7.64297,-0.0572156,3.92586,8.59247,3.79775,2.24053,-0.374216,47.3874,10,0,0,0
0,1405105411,198263,23.653,40.9039,-17.4591,50.3728,-8.37425,-0.147761,4.12877,9.33791,6.02941,5.9228,-3.3593,47.3773,10,0,0,0
0,1405105412,199269,16.5112,18.7123,-20.8334,32.5085,-8.53378,-0.196536,4.09277,9.46652,-1.17926,8.13215,-1.24754,47.3663,10,0,0,0
0,1405105413,200274,27.3393,32.4506,-19.305,46.6171,-8.43961,-0.620549,3.94907,9.33848,6.69842,1.67494,-2.55302,47.3509,10,0,0,0
0,1405105414,201275,23.9541,31.6267,-19.5329,44.222,-7.78572,-0.170816,3.93076,8.72339,-0.855981,3.08493,-0.416919,47.2712,10,0,0,0
0,1405105415,202277,29.1096,42.3552,-19.4083,54.9364,-8.33853,-0.299382,4.10433,9.29873,1.67734,5.91907,-0.993402,47.3241,10,0,0,0
0,1405105416,203279,27.8968,35.6796,-19.5375,49.3252,-8.29603,-0.703443,3.93745,9.20991,3.1649,5.18481,-3.76655,47.2658,6,0,0,0
0,1405105417,204283,25.3948,28.5656,-20.5414,43.3916,-8.00972,-1.3179,4.0701,9.08065,2.92694,2.44088,-0.565077,47.2377,10,0,0,0
0,1405105418,205289,32.711,20.5813,-17.5184,42.4322,-8.86592,-1.40093,4.53001,10.0543,5.54767,1.99929,-1.72014,47.372,10,0,0,0
0,1405105419,206297,43.9054,29.1301,-11.146,53.8562,-8.85345,-0.79145,4.35273,9.89728,0.0912708,15.3077,-4.34656,47.2442,9,0,0,0
0,1405105420,207300,46.6884,28.8467,-10.1985,55.8207,-8.94158,-1.13799,4.73672,10.1825,4.94936,4.78569,-5.80237,47.1893,11,0,0,0
0,1405105421,208307,37.8675,22.2041,-14.5812,46.2556,-8.4998,-0.755237,4.34318,9.57498,-1.90383,7.07876,-0.158602,47.0924,10,0,0,0
0,1405105422,209308,56.4256,43.3712,-13.9873,72.5297,-8.11726,-0.503875,4.17835,9.14343,2.18471,-2.69335,-2.04521,47.3202,11,0,0,0
0,1405105423,210310,49.9822,29.0235,-12.9935,59.2403,-8.24158,-1.02636,4.35531,9.37794,4.66577,-0.112684,-0.549893,47.2296,10,0,0,0
0,1405105424,211314,42.7389,20.1474,-12.6553,48.9151,-7.6411,-1.25038,4.35122,8.88161,2.11347,5.45319,-1.93079,47.1464,10,0,0,0
0,1405105425,212321,41.8066,24.2162,-12.266,49.8465,-7.42281,-1.15696,4.4226,8.71757,1.20959,-3.44388,2.5344,47.2071,10,0,0,0
0,1405105426,213327,39.8885,54.0999,-14.559,68.774,-7.85027,-0.73282,4.38781,9.02311,1.70908,11.4838,-0.518661,47.1812,9,0,0,0
0,1405105427,214334,57.8409,37.9554,-8.40368,69.6908,-8.30103,-0.68441,4.58617,9.50834,3.5384,0.284668,1.28573,47.1707,10,0,0,0
0,1405105428,215340,42.7134,35.6273,-12.9734,57.1144,-7.97045,-0.474382,4.73927,9.28514,0.950428,12.816,-1.74342,47.1451,11,0,0,0
0,1405105429,216341,41.8058,57.4526,-17.7064,73.2259,-8.51582,-1.4786,4.80342,9.88829,5.57216,-2.67813,0.30334,47.1703,10,0,0,0
0,1405105430,217343,43.9027,20.3474,-11.7051,49.7843,-8.12398,-0.7028,4.56544,9.34539,2.52627,3.0141,-0.769076,47.1628,10,0,0,0
0,1405105431,218348,48.1948,35.3655,-14.0257,61.4018,-7.18486,-1.66363,4.09231,8.43427,-1.43501,3.79098,-1.53951,47.2149,10,0,0,0
0,1405105432,219353,34.9228,32.745,-18.857,51.4531,-7.14527,-1.98735,3.39472,8.1565,0.258431,4.08118,2.0277,47.3892,11,0,0,0
0,1405105433,220354,5.05528,12.2737,-28.1411,31.1146,-7.78343,-0.0230177,3.89852,8.70521,-12.9422,7.34351,6.77891,47.2302,10,0,0,0
0,1405105434,221358,9.97903,39.5118,-25.0842,47.8538,-8.21022,1.40175,4.28276,9.36561,-17.5157,5.63832,13.7572,47.3564,10,0,0,0
0,1405105435,222360,6.56174,13.3004,-15.4839,21.4408,-8.14188,1.35972,4.03396,9.1876,-15.3894,6.61428,14.1862,47.2485,10,0,0,0
0,1405105436,223362,15.8771,27.5737,-8.85886,33.0283,-8.05101,1.96431,3.50447,8.9977,-27.1565,2.7297,18.0116,47.3739,11,0,0,0
0,1405105437,224364,1.05342,37.8701,-9.23713,38.9946,-8.34539,2.08077,4.25498,9.59583,-27.6298,-0.948019,21.7784,47.2513,11,0,0,0
0,1405105438,225366,10.2596,41.2933,-4.23229,42.7588,-8.50024,2.43074,3.99868,9.7032,-30.4205,6.66737,21.6305,47.3928,11,0,0,0
0,1405105439,226374,6.56739,33.9064,-1.94807,34.5915,-8.69469,3.65031,3.70406,10.1313,-37.5288,4.17317,22.0182,47.451,11,0,0,0
0,1405105440,227377,26.4889,53.2581,3.84708,59.6061,-7.68489,2.46277,4.28197,9.13554,-36.4575,9.48386,19.7117,47.4695,11,0,0,0
0,1405105441,228381,51.1944,60.6011,12.5043,80.3101,-8.12565,1.63343,4.5049,9.43337,-26.6491,6.21395,15.4188,47.529,10,0,0,0
0,1405105442,229387,49.5653,55.9299,9.65128,75.3527,-8.33544,1.3798,3.78871,9.25947,-18.0378,6.47531,11.8844,47.6221,11,0,0,0
0,1405105443,230394,49.2079,53.0963,7.43126,72.7726,-7.76214,-2.49696,3.26918,8.78483,3.59341,5.77008,-1.7981,47.5604,10,0,0,0
0,1405105444,231398,37.3371,43.9348,3.5592,57.7668,-8.03655,-0.0318345,3.44697,8.74464,0.0971586,5.1464,-0.512723,47.7284,11,0,0,0
0,1405105445,232404,8.11607,25.4888,-8.08603,27.9452,-9.12704,-1.19394,2.88322,9.64579,7.42689,-15.1321,-7.60258,47.672,10,0,0,0
0,1405105446,233406,2.87113,23.7925,-9.9228,25.9382,-8.83778,-1.70452,2.79541,9.42476,6.85605,2.74477,-3.46547,47.5947,10,0,0,0
0,1405105447,234409,-0.848504,19.893,-8.46787,21.637,-8.72815,-1.37753,3.39823,9.46711,4.23475,-7.19315,0.86569,47.6451,9,0,0,0
0,1405105448,235416,1.254,16.877,-8.1615,18.7887,-10.1161,-2.19047,3.15895,10.8219,8.27702,12.7446,-1.06637,47.6666,10,0,0,0
0,1405105449,236422,6.37851,24.1259,-6.4394,25.7723,-9.45228,-1.51658,3.52415,10.2012,12.0451,21.302,-7.12055,47.6747,11,0,0,0
0,1405105450,237424,3.63616,23.066,-4.76877,23.8329,-8.75851,-2.47123,4.05753,9.96404,12.9453,6.85463,-6.68613,47.7212,9,0,0,0
0,1405105451,238426,2.61538,26.0837,-4.76217,26.6435,-8.7817,-2.35671,3.47931,9.73539,11.7498,1.85385,-6.22786,47.7026,10,0,0,0
0,1405105452,239428,4.1566,28.2596,-3.57455,28.7865,-9.0595,-2.38771,3.90251,10.1492,18.9451,-3.16655,-7.01255,47.5555,11,0,0,0
0,1405105453,240434,21.0822,34.9181,6.32409,41.2762,-8.51088,-2.1154,3.59341,9.47748,11.5692,6.78167,-5.57498,47.7419,7,0,0,0
0,1405105454,241435,8.88555,32.8936,0.238168,34.0734,-8.28118,-3.83058,3.4584,9.75765,16.012,2.18967,-7.68445,47.5468,10,0,0,0
0,1405105455,242439,17.9539,42.5367,4.49343,46.3886,-8.64143,-2.08018,3.72244,9.63629,10.669,5.07663,-6.55337,47.5218,10,0,0,0
0,1405105456,243442,14.39,36.4244,2.42277,39.2388,-8.67366,-4.12118,3.58459,10.2502,16.4368,5.20214,-7.80943,47.5802,11,0,0,0
0,1405105457,244444,23.1145,42.5336,7.68968,49.0155,-9.2291,-3.01652,4.10875,10.5431,6.08216,5.41353,-5.96252,47.5801,10,0,0,0
0,1405105458,245451,27.6891,53.0739,5.15924,60.0845,-8.36524,-3.69624,4.01675,9.98868,16.0154,7.23147,-8.91706,47.652,10,0,0,0
0,1405105459,246455,20.4328,50.7828,2.19182,54.7832,-8.92897,-2.46388,4.06275,10.1145,7.56251,1.53815,-4.8576,47.6154,10,0,0,0
0,1405105460,247456,20.4568,52.7001,2.69856,56.5956,-8.8054,-1.12154,3.81544,9.6618,7.88168,-1.89423,-3.62555,47.5092,9,0,0,0
0,1405105461,248457,41.0023,61.2757,7.78927,74.1389,-7.83232,-2.37579,4.15201,9.17763,12.2211,7.81458,-7.32898,47.5704,9,0,0,0
0,1405105462,249458,33.8291,60.4369,3.00381,69.3257,-8.3698,-1.33661,4.01988,9.38081,1.51986,9.85065,-0.136542,47.7111,10,0,0,0
0,1405105463,250462,39.4176,58.5009,7.53098,70.9423,-8.51271,-1.50915,3.87708,9.475,4.30007,7.98013,-5.20276,47.502,11,0,0,0
0,1405105464,251467,33.8628,47.6973,7.23592,58.9414,-8.84006,-0.445538,4.40209,9.88552,0.625769,8.53446,-2.75108,47.6843,11,0,0,0
0,1405105465,252469,30.9711,53.5211,4.03969,61.968,-7.59857,-0.0763068,4.18512,8.67521,-1.46215,3.8731,-0.419306,47.5359,10,0,0,0
0,1405105466,253471,-22.2116,16.9227,-15.6829,32.0264,-8.84152,-0.488062,3.11136,9.38569,-5.23553,0.114105,7.49089,47.5209,10,0,0,0
0,1405105467,254474,-1.75333,33.3644,-6.22283,33.985,-9.22524,1.46483,3.60961,10.014,-11.8504,5.25334,7.24962,47.3993,6,0,0,0
0,1405105468,255476,3.5863,35.9752,-2.3102,36.2272,-8.31428,1.49299,3.77368,9.25186,-5.30298,6.38675,2.90082,47.3292,7,0,0,0
0,1405105469,256483,25.2967,33.4517,8.01584,42.6989,-8.15252,2.80337,3.68114,9.37408,-16.326,5.67426,11.4192,47.4325,6,0,0,0
0,1405105470,257485,37.3754,51.1995,10.2413,64.2121,-7.99176,1.90312,4.17023,9.21308,-13.5026,-1.21626,4.7098,47.5742,7,0,0,0
0,1405105471,258494,-14.1093,19.4311,-10.4411,26.185,-9.06805,-0.746611,3.23467,9.6566,-2.13129,4.58036,-3.86686,47.574,7,0,0,0
0,1405105472,259495,-16.7535,24.6102,-11.7651,32.0118,-8.92727,-1.22671,3.23304,9.57358,5.25669,6.25121,-4.55569,47.5585,6,0,0,0
0,1405105473,260501,-17.245,19.4259,-10.7209,28.1015,-8.51431,-2.01247,3.11667,9.28748,7.31816,3.92156,-6.64041,47.6643,7,0,0,0
0,1405105474,261507,-15.3559,22.3414,-9.54884,28.7423,-8.14118,-3.44976,3.06716,9.3588,13.3547,6.78459,-9.76596,47.5686,6,0,0,0
0,1405105475,262509,8.42202,36.0393,-0.41007,37.0126,-7.97948,-3.84204,3.53595,9.53605,14.6288,5.62762,-9.17507,47.5175,6,0,0,0
0,1405105476,263510,-8.56288,26.6479,-8.74014,29.3228,-8.0445,-3.13802,3.60766,9.35822,12.2429,5.63015,-8.22721,47.4606,7,0,0,0
0,1405105477,264513,-1.48083,32.1924,-5.93657,32.7687,-8.62431,-2.29114,3.91333,9.74382,1.26693,-11.1449,1.30059,47.4632,6,0,0,0
0,1405105478,265520,-8.55106,26.8878,-9.51056,29.7746,-9.30305,0.0447371,3.53019,9.95042,-4.23992,-7.03936,3.26368,47.6173,4,0,0,0
0,1405105479,266523,-7.23402,28.1452,-8.59403,30.3042,-9.06345,1.39424,3.50793,9.81812,-14.9166,7.61815,10.915,47.5326,7,0,0,0
0,1405105480,267533,5.29617,30.6959,-2.72727,31.2686,-8.58357,3.0258,3.64736,9.80492,-19.5518,4.36494,16.3627,47.5114,7,0,0,0
0,1405105481,268543,8.20237,37.745,-1.31033,38.6481,-8.67517,2.1289,3.7298,9.67999,-13.3166,-1.65818,9.48653,47.4959,6,0,0,0
0,1405105482,269548,25.073,52.1591,5.34952,58.1192,-7.97762,3.14773,3.85536,9.40289,-19.9991,8.20116,7.61946,47.7001,5,0,0,0
0,1405105483,270559,27.808,38.4749,7.057,47.9938,-8.37952,0.726854,3.9363,9.2865,0.03669,5.35833,-1.716,47.681,7,0,0,0
0,1405105484,271560,29.6759,46.298,7.83173,55.5473,-8.36784,-1.8461,4.06964,9.48635,7.96067,10.4881,-7.72554,47.6626,7,0,0,0
0,1405105485,272563,25.1494,49.3171,6.17968,55.7033,-8.29786,-2.86326,4.07503,9.67774,12.1892,0.365002,-7.29782,47.6797,6,0,0,0
0,1405105486,273571,21.542,47.343,5.85365,52.3419,-8.05179,-3.61316,3.82537,9.61871,17.4649,0.108726,-9.99625,47.735,7,0,0,0
0,1405105487,274582,19.6729,38.3991,4.8671,43.4189,-7.82882,-2.94394,3.82348,9.19653,13.2371,4.14819,-9.15819,47.834,7,0,0,0
0,1405105488,275589,18.4895,39.227,3.32289,43.4932,-8.32448,-3.57569,4.21536,9.99259,15.147,4.9605,-7.29305,47.8419,7,0,0,0
0,1405105489,276594,15.2537,38.2907,3.22789,41.3433,-8.14647,-3.51925,3.85202,9.67409,10.9703,7.43453,-7.95829,47.8037,7,0,0,0
0,1405105490,277596,14.9028,36.7516,1.57238,39.6894,-8.49495,-3.54328,4.13856,10.0919,15.6961,2.30121,-11.5002,47.7483,6,0,0,0
0,1405105491,278615,10.0015,38.1108,-2.80333,39.5009,-8.40156,-4.14998,3.74802,10.0924,15.3692,8.19688,-9.00726,47.7258,7,0,0,0
0,1405105492,279618,-7.84051,27.1354,-11.6174,30.5412,-8.68485,-2.78338,3.32976,9.70882,7.8476,-8.0528,-8.19344,47.769,6,0,0,0
0,1405105493,280626,-11.8844,22.0924,-15.4728,29.4741,-7.97467,-3.06042,3.09121,9.08389,16.0392,1.0265,-9.23811,47.6684,7,0,0,0
0,1405105494,281636,-18.4644,18.5215,-20.3508,33.1381,-8.03891,-3.67573,3.17412,9.39203,13.5116,19.2208,-14.3984,47.7592,7,0,0,0
0,1405105495,282637,-18.8427,16.9315,-23.4307,34.5068,-8.24754,-3.55873,3.39493,9.60271,14.5102,7.98418,-12.3009,47.7773,7,0,0,0
0,1405105496,283644,-1.04313,30.3152,-19.2789,35.9413,-8.38685,-2.36751,3.96053,9.57237,16.2374,8.86132,-10.7348,47.8325,7,0,0,0
0,1405105497,284648,7.62967,22.9004,-18.6787,30.5211,-7.89784,-3.92208,3.73936,9.57817,18.8469,5.1455,-11.4357,47.8417,4,0,0,0
0,1405105498,285649,10.3335,33.9844,-21.7738,41.6631,-8.21463,-2.32419,3.80596,9.34705,6.15406,10.7168,-8.55902,47.8846,7,0,0,0
0,1405105499,286661,11.9041,18.8779,-20.9706,30.6243,-8.1495,-0.715712,3.78975,9.01603,4.19626,7.44805,-0.0842989,47.7814,7,0,0,0
0,1405105500,287675,10.486,22.0649,-21.8571,32.7803,-8.61137,-0.324194,3.97806,9.49135,-6.67684,8.41286,4.3255,47.9051,6,0,0,0
0,1405105501,288680,2.53164,19.6836,-22.9906,30.3714,-8.19163,-0.281671,3.68762,8.98781,-8.531,1.446,4.77405,47.8652,7,0,0,0
0,1405105502,289688,2.35457,29.0317,-23.187,37.2293,-8.298,1.15425,3.86535,9.22659,-10.2617,8.59502,4.98559,47.9052,6,0,0,0
0,1405105503,290691,-19.7186,16.2101,-28.4565,38.2277,-8.3559,1.61981,3.13371,9.07001,-15.5076,7.19885,8.78504,47.9914,6,0,0,0
0,1405105504,291697,-0.659588,22.7271,-16.0129,27.8095,-8.66016,2.34129,3.44148,9.60852,-18.568,1.83601,10.9358,48.0232,6,0,0,0
0,1405105505,292698,10.4637,43.4721,-7.63812,45.3614,-8.76144,2.45334,4.28959,10.0589,-22.3774,4.65094,10.6327,48.022,6,0,0,0
0,1405105506,293702,20.0096,52.8381,-2.28723,56.5463,-8.74771,1.99159,4.12297,9.87359,-15.3283,5.20038,8.73566,48.0806,6,0,0,0
0,1405105507,294712,21.6463,54.4667,2.26905,58.6544,-8.17061,1.06439,4.12303,9.21364,-16.2955,5.64246,7.86902,48.2317,6,0,0,0
0,1405105508,295716,24.0584,34.7065,7.89831,42.962,-8.40875,2.76091,4.37448,9.87247,-19.3386,3.73674,13.0277,48.1776,6,0,0,0
0,1405105509,296727,28.6846,57.3379,7.40244,64.5387,-8.70351,2.00419,4.38626,9.95023,-14.9392,2.51344,5.86564,48.1678,6,0,0,0
0,1405105510,297730,33.6793,48.9726,8.96366,60.1079,-8.44155,0.0730179,4.24778,9.45033,-2.30359,6.48968,0.295144,48.1952,6,0,0,0
0,1405105511,298733,8.33062,38.6698,-2.88279,39.6618,-8.55939,-0.562527,3.83522,9.39619,4.55603,-5.58617,-0.813243,48.2142,7,0,0,0
0,1405105512,299740,8.0983,31.047,-3.09284,32.2345,-8.59942,-2.9771,3.54888,9.76768,17.7744,3.18727,-4.78537,48.2544,6,0,0,0
0,1405105513,300743,22.3047,34.3072,3.07597,41.0359,-8.01656,-2.66076,3.88256,9.29619,13.2666,7.53434,-10.6035,48.2973,7,0,0,0
0,1405105514,301751,28.3521,53.808,1.00115,60.8288,-8.53491,-2.54879,4.36334,9.91865,16.9187,6.07493,-10.701,48.2563,7,0,0,0
0,1405105515,302760,30.3765,33.1094,3.08264,45.0385,-8.83922,-2.75984,4.65911,10.3661,20.3494,13.1168,-15.9933,48.25,6,0,0,0
0,1405105516,303763,21.7222,33.5227,-2.75353,40.04,-7.72045,-3.85204,4.09097,9.54881,19.0023,6.12304,-15.4122,48.3234,5,0,0,0
0,1405105517,304769,23.5649,50.0813,-9.01557,56.0778,-8.52364,-4.32442,4.32628,10.4914,21.9779,9.29341,-12.6064,48.2241,6,0,0,0
0,1405105518,305778,19.6599,39.7245,-14.2713,46.5641,-7.68039,-4.24079,3.98252,9.635,27.71,10.4108,-17.4472,48.2674,7,0,0,0
0,1405105519,306783,22.9022,27.5408,-17.6685,39.9397,-7.83914,-4.82823,4.09001,10.0743,26.0129,7.1492,-22.3598,48.247,5,0,0,0
0,1405105520,307788,16.2198,24.4839,-24.9842,38.5584,-8.09296,-1.4407,3.90109,9.09891,12.1361,5.97156,-9.68864,48.1663,7,0,0,0
0,1405105521,308792,20.9788,21.5059,-25.3952,39.3386,-7.38842,-3.1373,3.43617,8.73148,-2.25147,13.4587,2.72656,48.2705,7,0,0,0
0,1405105522,309795,25.3966,34.961,-20.8541,47.9808,-9.2858,2.8856,4.04289,10.5308,-21.2062,2.34011,16.0948,48.329,7,0,0,0
0,1405105523,310803,24.8774,26.8611,-13.9164,39.1672,-9.13458,3.60732,4.26282,10.7063,-12.7506,8.82852,14.2205,48.2003,7,0,0,0
0,1405105524,311806,31.9769,42.8835,-9.56102,54.3409,-8.14487,2.37509,5.25574,9.98012,-20.0441,3.20349,16.1249,48.2305,7,0,0,0
0,1405105525,312808,25.3003,38.3184,-6.32051,46.3503,-8.60164,3.58683,4.47376,10.3377,-22.6059,12.5611,9.63244,48.2386,6,0,0,0
0,1405105526,313813,12.4168,35.5522,-9.98163,38.9586,-8.23871,1.94819,3.50825,9.16404,-10.8057,11.8949,1.58006,48.3289,8,0,0,0
0,1405105527,314820,21.3255,41.4824,-3.94149,46.8092,-7.88682,-1.27528,4.57569,9.2068,-8.51934,11.8378,0.12237,48.3546,6,0,0,0
0,1405105528,315829,20.0852,36.6922,-2.32247,41.8943,-7.93943,-1.21605,4.00296,8.97424,-2.30605,12.1184,-1.7447,48.4086,6,0,0,0
0,1405105529,316830,18.8352,48.7174,-3.81732,52.371,-7.93214,-0.365282,4.10486,8.9388,7.07563,-0.840941,-4.22588,48.405,7,0,0,0
0,1405105530,317837,18.4403,51.3377,-4.75776,54.7562,-7.84307,-0.33809,3.97386,8.79885,1.47713,5.09482,-0.162044,48.4001,6,0,0,0
0,1405105531,318843,15.9575,28.2018,-0.837882,32.4143,-8.05123,-0.50745,3.79026,8.91325,1.05758,7.69204,0.511956,48.415,6,0,0,0
0,1405105532,319847,19.9348,53.1734,-2.87795,56.8602,-8.51633,-0.731132,4.32111,9.57781,0.793439,7.1251,-4.31458,48.4218,7,0,0,0
0,1405105533,320851,18.5502,41.4657,-0.899646,45.4348,-8.46071,-0.757419,4.04243,9.40737,-0.890028,12.7018,-2.39105,48.5996,8,0,0,0
0,1405105534,321863,19.5629,41.8664,-0.0873477,46.2115,-8.04977,-0.701451,3.78422,8.92251,0.977036,7.18603,0.215321,48.498,6,0,0,0
0,1405105535,322865,20.9119,42.5038,1.47416,47.3925,-8.41781,1.79934,3.8007,9.4097,-11.6012,6.93462,7.39128,48.5288,3,0,0,0
0,1405105536,323866,11.8774,41.6927,-0.55161,43.355,-8.10187,1.60873,3.6303,9.0226,-11.6591,3.50225,6.94335,48.3461,6,0,0,0
0,1405105537,324876,16.5674,33.9739,4.51001,38.0664,-8.3837,2.35123,3.5507,9.40331,-13.5952,9.12938,4.48509,48.4706,6,0,0,0
0,1405105538,325882,17.1363,42.659,6.25054,46.3951,-8.60393,1.81465,4.16656,9.7304,-10.5656,3.66721,2.866,48.4883,7,0,0,0
0,1405105539,326884,22.5717,43.0524,7.53466,49.191,-8.97696,-0.0627683,3.59196,9.66912,-1.03601,6.44601,0.842505,48.4954,7,0,0,0
0,1405105540,327892,25.3351,40.7789,7.70673,48.6229,-8.52585,-0.00849533,4.01339,9.42324,-1.66377,5.7935,-1.04265,48.4943,6,0,0,0
0,1405105541,328901,24.6293,49.1893,8.8614,55.72,-8.44798,0.980971,3.5211,9.20483,-4.56113,4.52364,1.0802,48.5492,7,0,0,0
0,1405105542,329906,18.6707,47.4098,6.01451,51.3075,-8.6088,0.237101,3.91898,9.46182,-1.72887,5.30747,0.205261,48.4633,8,0,0,0
0,1405105543,330914,22.113,38.2751,8.80428,45.072,-8.81945,-0.968322,3.96637,9.71867,-1.43416,4.4668,-1.524,48.4144,7,0,0,0
0,1405105544,331918,24.9621,38.4564,8.97211,46.7172,-8.53089,-0.797776,3.79719,9.37183,3.96629,0.104197,-2.35266,48.4238,7,0,0,0
0,1405105545,332929,24.8595,37.3781,8.20798,45.6343,-8.47183,-0.581532,4.09345,9.4269,-4.40779,-1.62344,2.05223,48.4077,6,0,0,0
0,1405105546,333934,26.6115,47.9087,7.18286,55.2722,-7.93059,-1.57877,3.59716,8.85022,6.37936,-0.477795,-8.66471,48.4682,8,0,0,0
0,1405105547,334935,23.121,35.6777,7.53869,43.1777,-8.61879,-0.86617,3.49928,9.3423,1.09621,6.20265,-2.50452,48.3853,6,0,0,0
0,1405105548,335944,25.553,53.977,5.61658,59.9835,-8.7863,-1.80006,3.93042,9.79222,2.56524,1.92141,-1.33308,48.3963,7,0,0,0
0,1405105549,336945,19.5742,42.5195,6.05121,47.1982,-8.80771,-2.0802,3.79248,9.81253,9.2693,0.738465,-4.05409,48.3698,7,0,0,0
0,1405105550,337954,-15.8805,24.3164,-12.1733,31.4907,-8.59518,0.162826,3.23643,9.18575,-0.30217,1.64713,3.30305,48.3239,6,0,0,0
0,1405105551,338956,-20.9367,21.7311,-13.8345,33.196,-8.96682,-1.27246,3.43688,9.68685,4.08788,4.14154,-2.85281,48.3366,6,0,0,0
0,1405105552,339968,-18.5595,22.986,-14.3761,32.8555,-9.07977,-0.0244064,3.41878,9.70211,-4.22932,3.29124,1.4068,48.2876,6,0,0,0
0,1405105553,340978,-18.3623,17.7079,-12.5765,28.4414,-8.62105,-0.789303,3.12018,9.20223,7.64456,3.88071,-4.09272,48.3939,6,0,0,0
0,1405105554,341982,-30.3647,13.2499,-18.7037,38.0448,-9.34865,-0.789595,3.32247,9.95286,1.1314,2.30465,4.87608,48.407,3,0,0,0
0,1405105555,342991,-22.8633,19.3284,-17.225,34.5401,-8.82565,0.77967,2.63252,9.24284,-8.36589,8.87003,4.32221,48.2609,6,0,0,0
0,1405105557,344010,-22.6369,10.9357,-15.32,29.4401,-9.24469,1.68713,2.01979,9.61198,-14.3128,5.3358,10.6242,48.2917,6,0,0,0
0,1405105558,345022,-14.7199,27.8102,-15.5307,35.0897,-9.33615,2.38552,2.00823,9.84314,-20.4691,-0.236412,14.6159,48.2083,7,0,0,0
0,1405105559,346035,-10.2366,20.6006,-14.3412,27.108,-9.3355,2.34009,2.38576,9.91561,-19.8734,2.2263,15.2512,48.2872,7,0,0,0
0,1405105560,347036,-0.363208,22.2573,-13.2672,25.914,-9.56554,2.22794,2.38986,10.1082,-30.3616,6.34666,18.5994,48.2743,6,0,0,0
0,1405105561,348038,14.8406,16.6424,-10.3958,24.6026,-8.66957,2.56361,2.99528,9.52393,-35.8704,4.85576,19.847,48.2747,7,0,0,0
0,1405105562,349041,25.4121,20.0931,-13.7983,35.2122,-8.8576,1.67061,3.09366,9.52989,-29.2391,4.73413,17.8996,48.3054,7,0,0,0
0,1405105563,350047,38.6398,25.6565,-14.8128,48.6899,-8.55432,1.72665,3.87766,9.54956,-28.1534,4.33574,15.6627,48.3623,5,0,0,0
0,1405105564,351054,48.6881,37.0631,-18.7873,64.0091,-8.26633,1.57566,3.8198,9.24153,-30.8375,6.89141,16.4789,48.4706,7,0,0,0
0,1405105565,352056,50.0727,13.9636,-20.7236,55.9618,-8.46683,0.789683,4.21039,9.48884,-15.8506,5.09291,9.1766,48.4482,7,0,0,0
0,1405105566,353059,50.2717,11.8156,-20.3391,55.5025,-8.30654,0.259214,4.7064,9.5507,-10.7669,4.89247,1.30897,48.4917,5,0,0,0
0,1405105567,354067,53.7931,21.5216,-20.9221,61.6004,-7.84355,-0.403449,4.35249,8.97932,-0.153698,10.677,-1.04323,48.5251,7,0,0,0
0,1405105568,355075,48.6779,19.3007,-23.217,57.2807,-8.5541,-0.540715,4.31363,9.59543,0.734729,6.76572,-2.07448,48.505,7,0,0,0
0,1405105569,356081,55.3022,27.1956,-20.9665,65.0963,-8.13624,-0.851507,4.04416,9.12571,5.84136,9.94075,-3.1093,48.6378,7,0,0,0
0,1405105570,357089,50.3828,34.6021,-22.7169,65.2058,-8.10428,-1.66868,3.58455,9.01736,4.22507,2.07949,-3.15746,48.5938,7,0,0,0
0,1405105571,358098,53.4691,23.6059,-18.8028,61.3981,-7.81538,-2.28974,3.50141,8.8647,5.03046,3.57123,-6.39987,48.6427,7,0,0,0
0,1405105572,359100,60.184,30.3331,-16.6322,69.4179,-8.41289,-0.744441,3.79689,9.25998,-1.45188,6.09695,-0.422675,48.8463,6,0,0,0
0,1405105573,360103,55.6647,43.6397,-20.4119,73.6181,-8.69922,-0.734956,4.23023,9.7011,2.37131,7.51296,-1.02729,48.7519,7,0,0,0
0,1405105574,361105,63.7919,37.0341,-16.9283,75.6802,-8.65794,-0.627586,4.18504,9.63682,-0.112625,4.35376,-3.26244,48.8947,3,0,0,0
0,1405105575,362106,61.8281,31.0469,-15.6757,70.9391,-8.23771,-1.37903,4.19553,9.34687,3.65246,4.59305,-4.30052,48.9098,7,0,0,0
0,1405105576,363115,61.8415,29.3066,-15.7832,70.2307,-8.34034,-0.76834,3.73297,9.16988,3.0252,4.94866,-1.85529,48.7722,6,0,0,0
0,1405105577,364116,62.1746,41.1772,-17.3194,76.5586,-8.23542,-0.633759,4.17077,9.25306,0.759131,3.21928,-1.64353,48.9671,6,0,0,0
0,1405105578,365118,67.9064,48.7373,-15.6506,85.0385,-8.19215,-1.41406,4.21408,9.32037,1.79851,3.11477,-3.11802,48.7908,10,0,0,0
0,1405105579,366123,77.5217,43.5922,-11.9196,89.7328,-8.50289,-0.353436,4.15514,9.47044,2.94059,-0.00129589,-0.82666,48.9186,11,0,0,0
0,1405105580,367127,69.302,54.3871,-14.8981,89.3458,-7.97085,-0.704976,4.09218,8.98763,3.38223,2.98594,-1.9715,48.759,11,0,0,0
0,1405105581,368128,77.9141,43.501,-10.549,89.8567,-8.57459,-1.41866,4.09702,9.60842,-1.03563,5.19514,3.41369,48.8795,10,0,0,0
0,1405105582,369133,76.7283,46.2261,-10.2816,90.1654,-7.87304,-0.816106,4.27105,8.99404,3.0935,3.45306,-4.32979,48.9493,11,0,0,0
0,1405105583,370138,86.8666,39.1936,-6.80725,95.542,-7.64336,-0.742126,4.04323,8.67867,2.86626,3.19119,-0.0332525,48.8972,12,0,0,0
0,1405105584,371140,87.1381,51.9979,-6.67365,101.692,-8.40562,-0.982808,4.52733,9.59776,2.61092,3.76101,-2.50484,48.8501,11,0,0,0
0,1405105585,372142,88.2789,43.1982,-5.70107,98.4466,-8.1342,-0.738681,4.02503,9.10559,4.64366,2.40648,-3.68221,48.9483,12,0,0,0
0,1405105586,373144,87.6231,38.0846,-4.62018,95.6535,-7.83881,-1.21551,4.25114,8.99981,0.687897,2.66925,-0.71406,48.9995,11,0,0,0
0,1405105587,374148,86.4155,48.4383,-5.2438,99.2038,-8.39201,-0.222834,4.28044,9.42325,3.54866,5.34642,-0.308484,48.9515,12,0,0,0
0,1405105588,375150,81.1826,56.4106,-8.52677,99.2244,-8.06329,-0.447049,4.38824,9.19092,3.41614,7.77436,0.20296,48.8773,12,0,0,0
0,1405105589,376156,76.0074,42.9499,-8.99934,87.7656,-8.42885,-1.56691,4.3568,9.61677,3.77872,2.69776,1.00646,48.9403,11,0,0,0
0,1405105590,377157,82.7109,33.9068,-7.25668,89.6851,-7.99233,-1.07376,3.9792,8.99246,-1.04787,2.50191,-2.18714,49.0854,11,0,0,0
0,1405105591,378162,71.1062,48.03,-11.5398,86.5802,-7.84556,-0.818494,3.65818,8.69512,4.78615,3.59753,-0.50567,49.0734,10,0,0,0
0,1405105592,379168,72.2462,50.9736,-12.9192,89.3573,-8.47749,-1.40718,3.8743,9.42646,3.01458,2.60867,-1.35309,49.0755,11,0,0,0
0,1405105593,380174,64.8963,38.445,-13.6801,76.6596,-8.17491,-2.27309,4.0516,9.40274,2.95824,11.6178,-4.03373,49.0257,11,0,0,0
0,1405105594,381179,74.1366,41.3253,-12.0347,85.7254,-7.52919,-1.85757,3.8033,8.63738,3.2304,-2.56656,0.875867,49.1316,11,0,0,0
0,1405105595,382187,67.9092,29.1196,-11.6208,74.7974,-8.16634,-0.385686,4.27067,9.22369,0.665261,7.21432,-1.59754,49.1085,10,0,0,0
0,1405105596,383192,74.1442,51.0236,-11.5207,90.7386,-8.15392,-0.0279776,3.39171,8.83125,1.79646,0.380188,0.010676,49.142,10,0,0,0
0,1405105597,384194,69.4892,48.8347,-12.9258,85.9108,-8.37897,-1.28984,3.73655,9.26459,0.759583,8.67822,-3.14466,49.1329,9,0,0,0
0,1405105598,385200,72.7745,48.606,-14.2356,88.6641,-8.21071,-2.44359,3.518,9.26084,2.30242,4.91508,-0.621112,49.1473,9,0,0,0
0,1405105599,386206,72.4111,34.3832,-9.97031,80.7774,-7.84198,-0.666647,4.17852,8.91073,2.84703,4.49767,-2.84163,49.1038,10,0,0,0
0,1405105600,387208,68.727,35.6722,-12.1537,78.3812,-9.09057,-0.61755,3.4627,9.74731,1.40975,3.86058,-0.866245,49.0389,10,0,0,0
0,1405105601,388214,66.4247,36.6761,-13.4428,77.059,-8.30239,-2.08565,3.42097,9.2186,0.354994,8.32172,3.75638,49.1385,9,0,0,0
0,1405105602,389217,63.0019,35.0292,-14.0715,73.4459,-9.19742,0.941844,3.74836,9.97646,5.90927,5.89052,-2.47221,49.137,9,0,0,0
0,1405105603,390226,64.4223,34.3472,-14.6508,74.4621,-8.48537,0.212817,4.69032,9.69773,2.85692,-5.76955,-3.92353,49.241,11,0,0,0
0,1405105604,391230,62.1632,37.7067,-15.2637,74.2902,-7.97204,-3.74136,4.01119,9.67682,8.07646,2.16236,-6.98365,49.1159,10,0,0,0
0,1405105605,392236,32.8513,18.7931,-28.3249,47.2725,-9.12189,-1.74775,3.25732,9.84244,3.05758,6.77458,-1.28938,49.0433,10,0,0,0
0,1405105606,393237,44.0045,27.2094,-23.2166,56.7077,-8.69023,-0.802023,3.01045,9.2318,1.29852,11.7967,-0.883433,48.8946,10,0,0,0
0,1405105607,394255,49.2385,33.612,-20.3874,63.0067,-8.5147,-1.23522,3.25843,9.20018,3.4086,6.32687,-1.75353,48.9254,11,0,0,0
0,1405105608,395259,63.3212,27.5913,-15.3394,70.7542,-9.48032,0.94043,3.68913,10.2162,1.53572,0.741909,3.39239,48.9245,8,0,0,0
0,1405105609,396262,61.7867,27.3664,-13.717,68.9541,-9.12426,-0.520584,3.95505,9.95818,8.38082,0.344247,-4.97707,49.0322,10,0,0,0
0,1405105610,397263,52.8523,27.845,-18.8754,62.6498,-8.51482,-0.684936,3.10337,9.08858,-3.65255,3.15411,-1.91142,49.0846,11,0,0,0
0,1405105611,398269,52.2652,32.7381,-19.813,64.7765,-8.86704,0.419392,3.51539,9.54769,-0.468438,6.62006,1.5796,49.0281,9,0,0,0
0,1405105612,399270,52.4713,31.6095,-19.9051,64.4097,-8.2088,-0.736155,4.07519,9.19421,-0.976219,8.51497,2.31998,48.9181,11,0,0,0
0,1405105613,400274,4.4976,-4.92167,-39.5281,40.0864,-9.33089,-0.230367,2.95001,9.78883,-0.932573,10.1527,-0.695665,48.9286,11,0,0,0
0,1405105614,401277,-0.273128,4.96986,-37.6455,37.9731,-9.06472,-0.486807,3.25621,9.64411,4.24607,4.65288,0.649355,49.0663,10,0,0,0
0,1405105615,402278,8.88267,2.27814,-37.3756,38.4842,-8.94955,-0.6718,3.27754,9.55448,4.14957,4.05388,3.07274,49.0395,12,0,0,0
0,1405105616,403280,8.76708,-1.86715,-36.9437,38.0156,-8.8907,0.0922401,3.03308,9.39429,-3.86445,4.59467,3.17486,49.0295,11,0,0,0
0,1405105617,404284,13.5397,8.39519,-37.8058,41.0254,-9.25699,-1.54683,2.9704,9.84417,1.77026,6.91501,-1.72025,49.0268,11,0,0,0
0,1405105618,405289,13.6128,10.0055,-37.4091,41.0471,-9.44864,-0.324187,3.0423,9.93164,1.63407,2.17546,1.08078,48.983,11,0,0,0
0,1405105619,406290,10.5658,1.21937,-36.9302,38.4313,-7.06687,-0.745088,2.86476,7.66176,-0.204969,3.23807,-2.39173,49.103,11,0,0,0
0,1405105620,407296,11.0066,-0.370443,-35.7958,37.4516,-8.86826,-1.12843,2.71731,9.34362,2.20471,10.2369,-2.54949,49.2094,9,0,0,0
0,1405105621,408301,8.14112,0.520562,-36.3509,37.255,-9.1311,-2.06838,3.11892,9.86828,11.633,-15.1818,-2.87657,49.2159,11,0,0,0
0,1405105622,409312,8.00522,5.64375,-36.4147,37.7089,-8.69555,-1.48767,2.85084,9.27109,1.79812,6.92037,-3.65573,49.2227,11,0,0,0
0,1405105623,410314,10.692,8.69457,-35.5718,38.148,-9.03373,-2.03344,3.21803,9.803,8.89684,7.82378,-3.7528,49.1587,11,0,0,0
0,1405105624,411315,29.7871,19.1161,-25.8709,43.8406,-8.65216,-1.59608,3.45812,9.45335,5.63643,6.57234,-4.34606,49.3103,11,0,0,0
0,1405105625,412317,17.4574,13.7014,-31.7326,38.7227,-9.122,-0.349703,3.139,9.65331,-3.50097,4.58606,4.74365,49.3116,10,0,0,0
0,1405105626,413322,19.7983,15.8761,-32.6389,41.344,-8.63643,-1.54427,2.88691,9.23617,0.202311,7.74939,-4.71479,49.3341,10,0,0,0
0,1405105627,414323,16.2186,14.3402,-34.2488,40.5175,-8.76692,-0.490168,2.76001,9.20418,-5.7944,3.51266,2.43498,49.4658,11,0,0,0
0,1405105628,415332,20.5167,7.77828,-33.787,40.2864,-9.20229,0.40294,3.25101,9.76799,-13.7454,5.37963,7.69755,49.3649,10,0,0,0
0,1405105629,416338,14.4927,11.4571,-39.512,43.6177,-8.86265,2.04836,2.72903,9.49684,-22.0262,3.51985,14.3687,49.3823,11,0,0,0
0,1405105630,417344,15.0179,5.56184,-42.0216,44.9699,-9.21505,1.61898,2.92045,9.80139,-28.7651,8.73781,10.0436,49.4356,10,0,0,0
0,1405105631,418347,13.2577,4.75377,-44.4586,46.6362,-8.66192,3.80127,2.93841,9.90519,-36.5737,2.2507,12.656,49.5153,12,0,0,0
0,1405105632,419353,16.6359,7.83766,-41.3517,45.2564,-8.30546,2.40555,3.48029,9.32093,-33.4623,5.99228,17.704,49.4826,11,0,0,0
0,1405105633,420354,31.274,27.8149,-34.2456,54.0786,-7.6147,1.27043,4.43955,8.90547,-28.4346,1.88085,16.6618,49.5799,11,0,0,0
0,1405105634,421357,21.316,17.3771,-31.3288,41.6873,-8.14324,2.20234,4.15599,9.40399,-29.1853,7.93088,15.4247,49.6218,10,0,0,0
0,1405105635,422358,20.0358,36.082,-28.3416,50.0659,-8.18463,1.26,4.37885,9.3675,-18.1772,1.91339,9.37785,49.5615,12,0,0,0
0,1405105636,423360,27.3741,22.2096,-19.6004,40.3334,-7.81661,0.704178,4.75473,9.1762,-10.6066,3.03008,5.25379,49.6173,10,0,0,0
0,1405105637,424366,16.9878,10.3863,-20.8148,28.8048,-8.45458,0.107411,3.90378,9.31295,-0.639381,4.8681,-2.22493,49.6823,10,0,0,0
0,1405105638,425367,23.2882,18.375,-19.6722,35.5946,-7.70646,-1.45247,4.65949,9.12196,1.61579,4.28275,-2.54472,49.7623,11,0,0,0
0,1405105639,426369,20.2628,16.6061,-20.6327,33.3474,-7.22275,-3.35552,3.72029,8.79023,5.14912,3.00303,-4.81248,49.5345,10,0,0,0
0,1405105640,427371,19.5884,19.8647,-23.4104,36.4192,-8.92509,1.60401,4.19927,9.99319,3.24105,4.7966,-3.48735,49.6934,11,0,0,0
0,1405105641,428372,12.5872,15.4007,-26.7608,33.3431,-9.10981,0.395033,4.62917,10.2261,4.45201,3.19877,-2.17748,49.6326,10,0,0,0
0,1405105642,429379,12.7394,27.0206,-29.8696,42.2445,-7.81632,-3.54188,3.52934,9.27879,3.80038,4.85381,-1.42191,49.6452,10,0,0,0
0,1405105643,430383,18.3904,22.8048,-27.8717,40.4363,-9.18445,0.710675,4.48245,10.2446,8.31996,5.64259,-4.75638,49.6193,11,0,0,0
0,1405105644,431388,15.1963,16.5439,-30.8022,38.1235,-8.65134,-0.0662358,3.64625,9.38857,3.40531,9.88509,-2.04651,49.5929,10,0,0,0
0,1405105645,432392,13.8675,15.4221,-31.9955,38.1295,-7.9876,-0.797686,4.0499,8.99109,7.24143,4.40902,-6.08143,49.6245,10,0,0,0
0,1405105646,433398,15.61,23.2455,-33.1821,43.4175,-8.27264,-0.813592,4.36586,9.38932,6.07376,2.80416,-5.78771,49.6323,11,0,0,0
0,1405105647,434399,11.1278,14.653,-36.2264,40.6312,-8.10279,-2.22275,3.2611,9.0128,13.6529,5.41376,-9.13366,49.5746,10,0,0,0
0,1405105648,435403,0.779698,7.70948,-42.9566,43.6499,-8.99043,-1.89466,3.87768,9.97266,13.1733,5.17189,-10.6684,49.5468,9,0,0,0
0,1405105649,436407,2.72848,7.00343,-43.7756,44.4162,-8.89516,-2.27148,3.46083,9.81126,18.8089,7.80583,-13.4364,49.6589,11,0,0,0
0,1405105650,437412,7.75919,7.10391,-44.5761,45.8006,-8.70738,-3.11405,3.64589,9.94024,22.3581,7.46427,-15.8691,49.734,11,0,0,0
0,1405105651,438416,7.12892,7.21055,-47.9074,48.9687,-8.48365,-4.69612,3.02507,10.1576,25.9112,7.31808,-17.4613,49.6604,6,0,0,0
0,1405105652,439425,14.8384,4.71764,-43.9367,46.614,-9.28404,-3.60269,3.20056,10.4602,34.3917,10.4718,-20.563,49.7184,10,0,0,0
0,1405105653,440426,36.9217,18.6402,-31.7634,52.1496,-8.04053,-4.3513,3.71438,9.86816,33.7628,7.00081,-20.6408,49.6604,11,0,0,0
0,1405105654,441427,50.4772,19.162,-22.3012,58.4164,-8.20425,-2.93078,4.09098,9.62472,24.3325,7.28551,-15.7478,49.7004,9,0,0,0
0,1405105655,442432,54.5486,17.7278,-16.7023,59.7394,-8.18263,-2.6476,4.41992,9.66959,21.0755,7.04654,-9.49772,49.6905,9,0,0,0
0,1405105656,443436,63.3326,40.6423,-14.1085,76.5628,-7.83646,-1.50738,4.27937,9.05512,13.9143,4.24659,-10.229,49.7235,11,0,0,0
0,1405105657,444437,63.7772,44.4486,-10.6459,78.4637,-7.83871,-2.4629,4.3282,9.28679,14.179,7.98286,-8.57638,49.7095,10,0,0,0
0,1405105658,445440,49.8399,21.1919,-9.10474,54.9182,-8.36227,-1.80368,3.72621,9.33089,15.7768,5.66793,-9.57943,49.7083,9,0,0,0
0,1405105659,446441,46.6017,31.8833,-7.35279,56.9415,-8.4677,-3.90279,3.6758,10.0222,22.8396,5.59829,-13.6853,49.7516,10,0,0,0
0,1405105660,447444,43.4387,41.9168,-4.96449,60.5688,-8.3034,-5.30597,4.12187,10.6813,24.8402,6.21575,-10.4872,49.7204,11,0,0,0
0,1405105661,448449,43.7917,44.4897,-0.244087,62.4268,-7.8462,-6.16898,3.5031,10.5778,25.958,2.29665,-12.6957,49.7117,10,0,0,0
0,1405105662,449454,32.6657,33.7819,-0.724011,46.9977,-8.12292,-2.47119,3.275,9.10023,10.3927,1.96153,-3.32042,49.6928,10,0,0,0
0,1405105663,450460,30.7361,33.7857,-1.69662,45.7062,-8.46143,-0.422469,3.59016,9.20128,3.60425,7.8634,-2.36231,49.7698,11,0,0,0
0,1405105664,451462,28.3321,31.7153,-1.8897,42.5692,-8.55851,-0.163381,3.79873,9.3651,1.09383,6.53238,-1.38273,49.8168,10,0,0,0
0,1405105665,452471,1.37556,20.8574,-14.2866,25.3186,-9.22201,-0.534611,3.10531,9.74547,-3.23314,3.43253,3.39357,49.8896,10,0,0,0
0,1405105666,453476,7.52659,17.2461,-12.8597,22.7914,-9.51455,0.845534,3.70134,10.2441,-6.1815,5.60426,3.03855,49.8834,11,0,0,0
0,1405105667,454480,26.2321,29.6068,-7.30281,40.2246,-8.96407,0.868519,3.41785,9.63279,-8.94465,4.43543,5.13402,49.7974,11,0,0,0
0,1405105668,455485,28.7463,28.0286,-7.67496,40.8761,-8.76332,0.622346,3.81052,9.57618,-5.36585,5.181,1.45385,49.8864,10,0,0,0
0,1405105669,456489,30.2609,31.1509,-8.87897,44.3276,-8.41942,-0.272954,3.65326,9.18191,-6.63707,5.75995,2.28726,49.8704,11,0,0,0
0,1405105670,457492,29.7338,28.1723,-11.1172,42.4426,-8.54613,0.640603,3.8063,9.37735,-10.852,2.28899,10.4842,49.8384,11,0,0,0
0,1405105671,458498,28.1547,22.9109,-16.834,40.0122,-8.92952,1.74223,3.6637,9.80787,-17.555,2.82332,6.94794,50.0359,10,0,0,0
0,1405105672,459501,24.6512,17.9904,-22.3201,37.809,-8.68887,1.41792,3.41055,9.44133,-17.1332,5.84758,9.78947,50.0061,10,0,0,0
0,1405105673,460502,28.0162,19.8774,-25.2058,42.6069,-8.24512,1.49942,3.11909,8.94198,-19.6043,5.54692,8.94228,50.0592,11,0,0,0
0,1405105674,461505,28.3386,14.0336,-28.1824,42.3588,-8.68564,1.9176,3.1062,9.42157,-24.5667,4.01081,13.858,50.0987,11,0,0,0
0,1405105675,462508,28.4769,14.4707,-32.847,45.8177,-8.40972,1.95125,3.19662,9.20593,-24.763,7.62457,15.2493,50.1977,10,0,0,0
0,1405105676,463512,38.9969,24.7738,-32.1013,56.2583,-8.56313,2.5694,3.77529,9.70473,-29.1439,5.1549,18.4977,50.1437,11,0,0,0
0,1405105677,464516,36.609,24.912,-35.5297,56.7732,-7.95051,4.01618,3.73984,9.66058,-38.0727,3.7821,17.4219,50.1129,11,0,0,0
0,1405105678,465521,25.6941,16.0909,-38.1547,48.7328,-8.84248,3.46532,4.2043,10.3862,-33.991,3.5366,22.5305,50.3279,10,0,0,0
0,1405105679,466523,32.7766,18.3627,-30.6682,48.4977,-7.28063,2.57327,3.74488,8.58216,-25.6692,4.69227,14.0212,50.2719,10,0,0,0
0,1405105680,467526,46.7111,40.0265,-24.7432,66.3044,-8.22854,1.75079,4.29952,9.44775,-21.3254,5.16355,12.1517,50.2853,11,0,0,0
0,1405105681,468532,37.3194,54.3708,-26.0474,70.9041,-8.43443,1.34686,4.29341,9.55966,-14.8612,4.35112,6.42923,50.3677,11,0,0,0
0,1405105682,469534,26.0594,13.8702,-21.1056,36.2895,-8.15387,0.44487,4.75713,9.45059,-5.55163,3.71783,0.153886,50.2826,10,0,0,0
0,1405105683,470538,15.7873,30.7097,-26.8365,43.7324,-7.69429,-1.98979,3.6354,8.73942,1.93347,6.83318,-4.97157,50.4739,11,0,0,0
0,1405105684,471542,11.208,20.5073,-28.8524,37.1299,-8.47358,0.47717,4.45863,9.5869,3.30691,4.7922,-2.9288,50.3968,10,0,0,0
0,1405105685,472544,12.723,16.6133,-29.734,36.3591,-8.81112,0.157403,4.43283,9.86461,6.44282,4.39917,-2.67057,50.4661,10,0,0,0
0,1405105686,473546,7.67605,18.3599,-33.3358,38.8238,-7.92419,-2.37045,3.22999,8.87945,5.18082,5.92371,-4.26311,50.434,10,0,0,0
0,1405105687,474548,3.02123,13.2629,-34.8459,37.4068,-8.95006,-0.572035,3.94584,9.79798,5.42179,6.28559,-2.52832,50.409,10,0,0,0
0,1405105688,475551,3.45637,14.191,-36.3837,39.2059,-9.02242,-0.9096,3.88151,9.86395,1.90172,2.97791,-0.9206,50.3819,8,0,0,0
0,1405105689,476558,10.9387,13.8429,-32.6739,37.1331,-7.72877,-1.50837,3.57889,8.64971,1.09614,4.37079,-0.522816,50.4304,9,0,0,0
0,1405105690,477566,10.2654,18.5844,-32.6869,38.9768,-8.8692,0.225026,3.92246,9.70046,2.89858,3.98516,-1.54239,50.3611,10,0,0,0
0,1405105691,478569,9.14999,14.8173,-33.4569,37.7179,-8.00935,-1.3293,3.49312,8.83848,2.71016,4.29538,-0.965374,50.4212,9,0,0,0
0,1405105692,479571,13.859,20.9451,-33.1417,41.5829,-8.91816,-1.00556,3.93714,9.8003,2.12116,6.41466,1.03011,50.3431,11,0,0,0
0,1405105693,480575,18.8718,23.2864,-32.3823,44.125,-8.20658,-2.09447,3.55274,9.1846,9.94522,5.20473,-4.40375,50.4597,11,0,0,0
0,1405105694,481580,23.2406,16.1287,-31.3201,42.2043,-7.93124,-2.69941,3.81465,9.20559,13.2968,5.27102,-8.83961,50.483,10,0,0,0
0,1405105695,482584,25.2303,32.7217,-32.9324,52.8377,-7.27489,-4.03158,3.46931,9.01187,12.4295,6.52015,-9.92124,50.4766,10,0,0,0
0,1405105696,483591,35.9594,17.8186,-28.9929,49.5093,-9.04431,-0.0897245,4.34531,10.0344,15.214,2.35725,-8.43828,50.4681,10,0,0,0
0,1405105697,484596,40.4813,21.6012,-28.4668,53.9972,-9.35486,-0.66891,5.07671,10.6646,12.8252,2.45645,-8.60212,50.5387,10,0,0,0
0,1405105698,485601,33.961,25.685,-34.3765,54.7249,-8.06439,-2.05182,4.09004,9.27215,4.52091,4.47084,-0.0460525,50.4281,11,0,0,0
0,1405105699,486607,35.12,16.6781,-33.3283,51.2089,-9.10039,-0.760103,3.83949,9.90639,9.99521,5.37084,-8.77319,50.4807,10,0,0,0
0,1405105700,487609,38.4995,24.4092,-32.2632,55.8474,-8.6346,-0.748595,3.95305,9.52593,16.5501,4.54528,-10.4172,50.329,10,0,0,0
0,1405105701,488613,52.2283,20.5802,-27.029,62.305,-8.46154,0.233982,4.33253,9.50912,16.9149,5.36085,-9.11093,50.3839,12,0,0,0
0,1405105702,489617,49.448,23.916,-28.6505,61.951,-8.00845,-4.08819,3.99554,9.83935,16.1185,1.39977,-10.3642,50.1789,11,0,0,0
0,1405105703,490618,50.6503,33.3885,-29.4476,67.4345,-8.14618,-4.15864,4.00887,9.98627,17.4001,2.20517,-9.11382,50.0542,11,0,0,0
0,1405105704,491620,52.008,16.2038,-25.5651,60.1745,-8.44297,-2.68639,4.23409,9.81977,11.6246,3.6261,-4.13724,50.1644,11,0,0,0
0,1405105705,492621,49.8301,32.6267,-27.053,65.4172,-7.78263,-1.38108,3.75135,8.74925,8.35398,5.03259,-4.26272,50.0995,11,0,0,0
0,1405105706,493625,54.609,34.5644,-26.2176,69.7438,-8.24046,-1.80605,3.99314,9.33339,7.09852,8.47211,-7.1425,50.3498,12,0,0,0
0,1405105707,494628,56.547,29.7845,-22.2309,67.6675,-7.82124,-1.60609,3.67124,8.78802,8.4194,7.57641,-5.72618,50.3778,12,0,0,0
0,1405105708,495632,52.2932,22.3281,-20.9811,60.608,-8.26431,-3.03281,3.99833,9.66868,14.8997,5.93947,-8.80727,50.405,12,0,0,0
0,1405105709,496636,60.7832,24.1515,-15.9864,67.3309,-8.70934,-2.47194,4.00368,9.89912,14.4155,6.78266,-7.86893,50.2806,10,0,0,0
0,1405105710,497642,61.3204,21.3232,-12.9972,66.2102,-7.61069,-2.49226,3.86396,8.8918,8.64164,7.97872,-6.82557,50.2512,11,0,0,0
0,1405105711,498644,60.928,43.2151,-14.9555,76.1802,-8.53046,-2.30945,3.97061,9.68855,11.4042,8.60988,-6.20245,50.3889,11,0,0,0
0,1405105712,499645,63.8297,33.2982,-9.63772,72.6353,-8.27833,-2.61873,4.35117,9.71191,14.6728,14.1775,-8.98897,50.3253,10,0,0,0
0,1405105713,500650,62.3474,40.4074,-8.20131,74.7477,-8.80191,-2.15565,4.25056,10.0094,8.22441,3.36134,-3.47435,50.3427,11,0,0,0
0,1405105714,501654,58.3171,41.7289,-8.47905,72.2086,-8.12398,-1.93788,3.72393,9.14451,14.8709,6.84752,-4.49084,50.4421,10,0,0,0
0,1405105715,502656,55.3993,33.6051,-4.52623,64.9528,-8.09459,-2.51011,3.7811,9.28008,8.72362,8.04612,-6.11824,50.5801,10,0,0,0
0,1405105716,503663,59.4426,31.183,-0.52849,67.1273,-8.2227,-2.23856,3.87275,9.36067,14.8617,7.47154,-7.26254,50.5294,10,0,0,0
0,1405105717,504667,59.4664,32.6485,1.23865,67.8507,-7.38616,-2.51186,3.59231,8.58891,16.695,6.82341,-10.3381,50.4545,10,0,0,0
0,1405105718,505673,54.4208,31.3885,2.40196,62.87,-8.50681,-2.43405,4.12845,9.76394,10.934,3.83255,-8.63582,50.5779,11,0,0,0
0,1405105719,506679,47.6882,35.5123,-0.386265,59.4596,-8.81179,-1.40194,3.72344,9.66835,5.18161,4.99776,-4.4089,50.6854,10,0,0,0
0,1405105720,507685,22.5843,26.1754,-10.2813,36.0681,-9.2701,-1.54959,3.24054,9.94168,9.66078,3.2986,-6.16163,50.5985,10,0,0,0
0,1405105721,508688,21.1915,25.6858,-9.99923,34.7682,-8.88222,-0.581387,3.75189,9.65963,2.91235,3.77994,-3.78979,50.6708,10,0,0,0
0,1405105722,509691,6.01038,12.3757,-13.7707,19.4657,-9.40084,-1.82844,3.34999,10.146,5.43471,6.15107,-8.33028,50.736,9,0,0,0
0,1405105723,510695,3.71956,16.0299,-16.1464,23.0543,-8.95799,-1.17707,3.0175,9.52556,3.41064,10.7807,-3.3471,50.7554,10,0,0,0
0,1405105724,511701,3.15222,12.2548,-14.9395,19.5782,-9.47671,-1.08856,3.13431,10.0408,2.39931,6.1169,-3.97524,50.6743,10,0,0,0
0,1405105725,512703,3.68765,24.9392,-15.4591,29.5727,-9.04568,-0.939841,2.71227,9.4902,0.377071,7.65554,-3.41142,50.6758,7,0,0,0
0,1405105726,513707,4.4533,13.7507,-14.2324,20.2848,-9.39904,-0.583286,3.58009,10.0747,2.19898,-5.00919,-1.09191,50.5972,11,0,0,0
0,1405105727,514710,7.42108,15.3442,-14.2321,22.2052,-8.46912,-1.29167,3.0349,9.08873,1.58239,-0.315652,-1.2864,50.5676,9,0,0,0
0,1405105728,515714,11.5759,20.5013,-14.8579,27.8399,-8.69276,1.01752,3.13793,9.29763,-11.5647,0.291503,8.33386,50.6595,8,0,0,0
0,1405105729,516718,16.5577,20.1236,-14.4324,29.7895,-8.09989,1.11606,2.84004,8.65561,-13.7671,7.51751,8.39227,50.6445,10,0,0,0
0,1405105730,517719,48.2714,33.3771,-4.11785,58.8312,-7.64864,1.21182,4.09373,8.7595,-18.5272,3.43,8.91338,50.7296,9,0,0,0
0,1405105731,518723,52.0758,39.2297,-7.72086,65.6542,-8.51463,2.4459,3.65677,9.58401,-17.9856,4.68312,10.3847,50.8361,9,0,0,0
0,1405105732,519727,55.9891,27.7486,-9.24921,63.1689,-8.60373,2.53459,3.96168,9.80527,-17.9326,7.84458,10.3318,50.6834,11,0,0,0
0,1405105733,520728,55.9739,31.981,-12.7535,65.7154,-8.82222,2.13546,4.42795,10.0994,-20.9853,8.21338,9.37152,50.7733,10,0,0,0
0,1405105734,521731,57.1378,32.5815,-16.2191,67.7447,-8.24105,1.34592,3.65379,9.11464,-11.0709,5.40321,2.03434,50.8315,11,0,0,0
0,1405105735,522736,58.6319,41.5764,-18.3725,74.1879,-9.04193,1.53551,4.37587,10.1618,-9.10455,-0.622553,6.86373,50.7766,11,0,0,0
0,1405105736,523741,54.189,35.0113,-20.6379,67.736,-8.58629,0.219519,4.01292,9.4803,-1.82834,1.32234,-0.932207,50.9678,10,0,0,0
0,1405105737,524743,52.6229,33.8661,-20.8809,65.9705,-8.8565,-0.0443118,3.67688,9.58952,-3.33253,6.9581,0.480233,50.7986,10,0,0,0
0,1405105738,525745,60.0659,37.2531,-20.727,73.6567,-8.80141,-0.605882,4.11992,9.73682,-2.15123,6.01593,-0.585499,51.0083,10,0,0,0
0,1405105739,526746,59.3853,26.5294,-19.2433,67.8287,-8.08121,-1.41686,3.94464,9.10349,4.08782,7.30786,-5.87244,50.9923,11,0,0,0
0,1405105740,527752,59.6698,24.5142,-18.8529,67.2076,-7.99892,-0.585821,3.90793,8.92176,2.15881,9.17111,-1.06118,51.0138,11,0,0,0
0,1405105741,528755,56.5762,22.1983,-19.53,63.8362,-8.26073,-0.8276,4.16324,9.28747,0.0185455,7.77289,-0.112754,50.9179,10,0,0,0
0,1405105742,529760,56.058,28.4553,-20.4486,66.1086,-8.30717,-1.02351,3.83207,9.20551,2.14694,7.04258,-1.27377,50.9787,11,0,0,0
0,1405105743,530765,57.1961,19.9839,-19.7371,63.7205,-8.46548,-1.30779,3.6514,9.31168,0.398851,2.40438,-1.0155,51.0292,11,0,0,0
0,1405105744,531767,21.6751,8.84182,-35.1167,42.204,-9.00998,-0.561936,3.32982,9.62201,-1.70074,6.09192,-1.11142,51.0826,11,0,0,0
0,1405105745,532771,10.6653,0.129541,-42.0775,43.4083,-9.08187,-0.572715,3.31996,9.68662,0.0674802,6.51485,-0.541181,50.9928,11,0,0,0
0,1405105746,533773,14.3833,9.01954,-42.0544,45.352,-9.90657,-0.762709,2.94018,10.3618,-2.90912,18.0361,-1.52688,51.1092,10,0,0,0
0,1405105747,534778,14.7758,4.79903,-40.5403,43.4152,-8.95156,0.0198673,3.38164,9.56903,-2.70757,-3.07285,1.13395,51.0198,10,0,0,0
0,1405105748,535779,13.7134,4.21076,-41.9602,44.3446,-8.90412,1.15215,3.29903,9.56527,-12.6266,6.56391,9.35784,51.0816,11,0,0,0
0,1405105749,536782,13.0252,5.04255,-44.0806,46.2405,-8.0323,3.02515,2.75885,9.01558,-16.1308,3.23498,7.84586,51.1407,11,0,0,0
0,1405105750,537783,16.5818,3.56225,-43.8961,47.0586,-9.66739,3.6001,3.6053,10.9278,-27.4409,3.31675,17.1953,51.1381,10,0,0,0
0,1405105751,538787,13.3642,7.56353,-45.0032,47.551,-8.30971,3.75212,3.36109,9.71733,-27.5284,3.66239,19.8538,51.1116,10,0,0,0
0,1405105752,539792,24.8562,29.7745,-37.6574,54.0595,-8.79346,3.87076,4.37247,10.5559,-34.5183,8.62339,20.696,51.2182,10,0,0,0
0,1405105753,540793,30.2242,7.91907,-24.0253,39.4136,-7.73107,4.21311,4.11436,9.71842,-35.2353,4.31416,19.5229,51.1171,11,0,0,0
0,1405105754,541799,25.0289,48.3454,-24.444,59.6761,-8.61356,2.45674,4.32828,9.94802,-21.7895,8.32693,9.87401,51.1613,10,0,0,0
0,1405105755,542802,32.8322,54.0721,-17.7281,65.6965,-7.19989,-0.429897,4.63235,8.57216,-5.36926,1.97303,0.277353,51.1724,10,0,0,0
0,1405105756,543803,38.665,42.9937,-11.3531,58.9265,-7.77048,0.40331,5.14956,9.33065,0.829231,2.45154,-0.851087,51.2213,11,0,0,0
0,1405105757,544805,27.0438,21.5186,-13.7068,37.1792,-7.84095,0.87323,4.22674,8.95033,2.41504,2.08466,-1.94948,51.2678,11,0,0,0
0,1405105758,545813,42.5296,52.6126,-12.2992,68.7613,-7.73313,-0.442075,4.30602,8.86219,4.18867,5.34386,1.62489,51.3243,10,0,0,0
0,1405105759,546816,44.4958,39.9432,-8.49285,60.3942,-8.22245,-0.77243,4.46172,9.38682,3.82943,4.15202,-1.29686,51.3409,9,0,0,0
0,1405105760,547821,44.785,37.8343,-8.26572,59.2069,-7.9249,-1.09691,4.40484,9.1329,6.38169,-2.29675,-5.19728,51.3324,10,0,0,0
0,1405105761,548825,41.2997,54.6451,-11.8534,69.5144,-8.44128,-0.906427,4.40127,9.56285,-1.97519,12.5696,-4.13758,51.2633,9,0,0,0
0,1405105762,549827,39.9988,38.3369,-8.93492,56.12,-7.70054,-1.77314,4.1317,8.91702,6.63414,-2.49891,-4.41427,51.3722,10,0,0,0
0,1405105763,550828,41.8513,47.5979,-9.74656,64.1255,-8.6868,-1.19733,4.54611,9.87731,2.93129,4.19059,0.662522,51.2236,11,0,0,0
0,1405105764,551833,55.7728,41.3045,-4.79167,69.5674,-8.00918,-0.98303,4.0963,9.04947,-0.675959,8.24842,-0.684753,51.2597,10,0,0,0
0,1405105765,552841,58.7977,62.8371,-5.83606,86.2539,-7.89871,-0.144431,4.37718,9.03162,0.77671,8.33382,-1.71221,51.2348,7,0,0,0
0,1405105766,553844,48.9053,38.6423,-4.2831,62.4764,-8.60442,-1.07249,4.73091,9.87764,-0.781582,8.24488,-0.0314632,51.1847,10,0,0,0
0,1405105767,554849,54.495,55.0551,-3.53535,77.5452,-8.19549,-0.393819,4.23981,9.23564,2.17148,11.3572,-1.31101,51.2719,11,0,0,0
0,1405105768,555854,58.6292,50.5679,-0.535715,77.426,-7.88758,-1.74531,4.6822,9.33719,2.82023,2.40241,-0.92551,51.3572,10,0,0,0
0,1405105769,556855,55.2042,40.665,-2.89059,68.6259,-8.45562,-0.421604,3.98491,9.35707,1.26928,6.57121,-1.07185,51.2501,10,0,0,0
0,1405105770,557860,49.3246,42.1771,-6.71263,65.2448,-8.5804,0.00039516,4.09915,9.50927,6.49668,8.31528,-4.75615,51.2542,10,0,0,0
0,1405105771,558866,46.8501,43.0995,-9.69415,64.3931,-7.83132,-1.72125,4.06939,8.99178,-1.69116,8.76027,-2.55422,51.3789,10,0,0,0
0,1405105772,559869,36.2406,49.5744,-12.4005,62.648,-9.24694,1.76529,3.74161,10.1302,-5.489,5.1114,5.01178,51.3446,10,0,0,0
0,1405105773,560872,23.722,43.8252,-18.0526,53.0026,-8.6306,-0.321131,3.73174,9.40831,3.28059,7.7635,-2.96399,51.3189,10,0,0,0
0,1405105774,561876,29.5748,25.2455,-14.2713,41.4207,-8.03495,-1.79241,3.57201,8.97398,5.89791,7.83239,-2.92858,51.3028,9,0,0,0
0,1405105775,562883,14.5727,21.7178,-21.3909,33.7875,-8.22732,-1.82249,3.75652,9.22615,2.83108,8.9121,-2.9502,51.3751,9,0,0,0
0,1405105776,563890,-3.22837,16.882,-30.1022,34.6636,-9.11217,0.122049,3.27976,9.68521,-1.33625,3.06156,-0.274079,51.3645,10,0,0,0
0,1405105777,564896,-8.75508,14.6343,-32.7984,36.9669,-8.27093,0.168777,3.30233,8.90742,-0.74461,1.90435,-2.2199,51.3804,10,0,0,0
0,1405105778,565901,-10.1522,13.4958,-33.4959,37.5124,-9.01085,-0.335047,3.52774,9.68259,3.84468,4.63981,-0.636649,51.2749,10,0,0,0
0,1405105779,566904,-12.4868,10.8573,-35.1236,38.8262,-9.05925,-1.36174,3.47622,9.79839,7.59207,6.18877,-3.47187,51.3379,10,0,0,0
0,1405105780,567907,-25.8947,0.121739,-40.582,48.1399,-9.11406,-1.09328,3.20018,9.72124,0.32911,5.03438,1.73656,51.2901,9,0,0,0
0,1405105781,568913,-33.9605,7.74537,-46.3514,57.9807,-8.55828,-2.28283,3.18475,9.41266,2.38582,2.03238,0.171887,51.372,10,0,0,0
0,1405105782,569914,-32.7923,-7.76467,-43.3007,54.8688,-9.08595,-0.656326,2.58239,9.46858,1.81478,18.7907,-0.705406,51.3906,10,0,0,0
0,1405105783,570920,-30.7619,11.1891,-45.5319,56.0771,-9.36366,-1.36487,3.15362,9.97429,7.83445,-5.46822,0.129907,51.4081,10,0,0,0
0,1405105784,571924,-33.3025,2.53695,-46.0671,56.9005,-8.93713,-0.673439,2.71621,9.36502,0.683796,4.57861,-2.87249,51.3306,10,0,0,0
0,1405105785,572929,-31.7999,-13.1889,-43.5114,55.4836,-8.66701,-0.915351,2.92443,9.19278,2.56275,4.34746,-1.20243,51.3914,10,0,0,0
0,1405105786,573934,-33.2937,4.36333,-46.894,57.6763,-8.77934,-0.948867,2.62963,9.21369,2.67301,3.42402,-3.81791,51.3064,10,0,0,0
0,1405105787,574939,-22.7588,13.6166,-45.6634,52.8065,-8.88627,-1.17673,3.07796,9.47757,2.63947,6.41578,-3.32846,51.2444,10,0,0,0
0,1405105788,575941,-4.32129,-1.86933,-41.8993,42.163,-8.95528,-0.7336,3.20137,9.53855,2.52227,9.77217,-0.951178,51.1752,10,0,0,0
0,1405105789,576943,-9.80244,-2.18897,-24.4403,26.4236,-8.64464,0.401723,3.23083,9.23739,-20.9683,5.98504,12.7713,51.3767,10,0,0,0
0,1405105790,577946,-11.9306,30.0759,-27.4349,42.4213,-8.72681,1.71325,3.45118,9.53955,-47.8411,6.7101,28.5388,51.2714,10,0,0,0
0,1405105791,578949,-13.8012,27.911,-23.7082,39.1354,-8.64517,1.67293,3.96041,9.65518,-50.3238,4.95112,29.9012,51.2613,10,0,0,0
0,1405105792,579958,-0.661902,36.6204,-8.10606,37.5127,-8.11107,-0.0646695,3.77441,8.9465,-50.693,5.84661,28.4876,51.2559,10,0,0,0
0,1405105793,580960,9.32285,25.1245,3.46158,27.0211,-8.78112,1.09415,4.76802,10.0518,-55.2558,5.45651,30.6483,51.2681,11,0,0,0
0,1405105794,581964,24.1995,39.3284,0.326459,46.1783,-8.17817,1.35111,3.25833,8.90644,-38.1694,5.20901,22.5899,51.2689,11,0,0,0
0,1405105795,582970,22.1802,31.3021,-6.45722,38.9034,-8.78953,0.974857,3.5819,9.54129,-19.6067,6.16733,10.0448,51.3466,11,0,0,0
0,1405105796,583973,24.8323,24.5137,-9.55865,36.1792,-8.50291,0.829762,3.58286,9.26417,-9.40708,4.47116,6.22238,51.4085,10,0,0,0
0,1405105797,584976,30.5008,26.9552,-9.07719,41.7047,-8.62688,0.278013,3.7636,9.41621,-3.73647,8.11732,2.54609,51.4259,9,0,0,0
0,1405105798,585982,36.7927,27.1983,-6.98163,46.2838,-8.83514,0.293606,4.01493,9.70905,-0.626875,4.32172,-1.75977,51.4123,9,0,0,0
0,1405105799,586988,29.2025,25.4419,-3.08762,38.8537,-8.93902,-0.0270812,3.75242,9.69472,2.73972,6.88355,-1.39477,51.6347,11,0,0,0
0,1405105800,587991,31.7489,23.3018,-5.89579,39.8212,-8.40905,-0.447862,3.4152,9.08715,3.80758,3.92254,-5.21993,51.4554,10,0,0,0
0,1405105801,588993,19.2825,20.3851,-13.423,31.1053,-8.7639,-0.680209,3.52499,9.4707,3.16015,3.6826,-3.98737,51.3702,11,0,0,0
0,1405105802,589997,28.6747,20.6499,-6.77759,35.9805,-8.52231,-0.464034,3.43938,9.20187,0.328912,4.93548,-1.16102,51.5137,8,0,0,0
0,1405105803,590998,37.787,37.3664,-3.37318,53.2493,-8.35848,-0.424038,4.32241,9.41951,-3.0583,4.66806,0.00658734,51.4604,11,0,0,0
0,1405105805,592003,50.753,33.4469,-2.67875,60.8419,-7.52903,0.130135,3.73759,8.40671,-2.0673,2.98664,-0.181038,51.4853,11,0,0,0
0,1405105806,593005,47.0028,44.3214,-5.98144,64.8801,-8.17528,-0.17867,3.59649,8.93319,0.534157,3.77246,0.535635,51.4579,10,0,0,0
0,1405105807,594007,47.1947,33.3083,-1.38343,57.7815,-10.1383,-1.19361,4.48547,11.1503,4.35968,4.66722,-3.38954,51.4354,11,0,0,0
0,1405105808,595008,45.6772,32.3523,-3.48141,56.082,-8.20132,-0.578655,3.4442,8.91398,0.76102,4.408,-0.264352,51.4002,11,0,0,0
0,1405105809,596010,46.3868,33.7077,-4.40309,57.5094,-9.04782,0.531801,4.33228,10.0456,1.49599,4.75721,0.416303,51.4496,11,0,0,0
0,1405105810,597014,43.8479,35.6675,-2.22949,56.5666,-8.72978,0.670623,4.14699,9.68795,3.20162,5.6897,-1.79026,51.3857,11,0,0,0
0,1405105811,598015,48.203,38.6728,-2.40738,61.8459,-7.99758,-2.07024,3.45489,8.95452,2.88867,5.73319,-0.654386,51.5507,11,0,0,0
0,1405105812,599075,47.6757,42.4929,-5.5855,64.1078,-8.03651,-1.98314,3.71937,9.0748,2.06778,4.03103,-1.16268,51.5983,3,0,0,0
0,1405105813,600076,45.4305,43.3977,-2.69655,62.8853,-8.37189,-1.31806,3.91254,9.33454,1.35007,2.93628,0.622839,51.5881,8,0,0,0
0,1405105814,601080,51.5063,38.7582,-4.23154,64.5988,-8.16108,-0.26944,4.03816,9.10947,-0.533922,5.83312,-0.62252,51.6771,10,0,0,0
0,1405105815,602083,50.4163,37.5234,-2.2569,62.8881,-8.38826,-1.02753,3.82573,9.27658,0.0719129,4.54459,-2.02042,51.6318,10,0,0,0
0,1405105816,603086,42.4751,40.2547,-6.83754,58.918,-8.54378,-0.735509,3.73039,9.35163,1.69894,4.81079,-3.64312,51.6705,10,0,0,0
0,1405105817,604088,46.6893,34.466,-7.12523,58.4685,-8.84382,-0.927271,4.18425,9.82756,1.87693,5.8029,-0.740211,51.62,9,0,0,0
0,1405105818,605092,42.1993,38.5163,-8.50595,57.7636,-8.95834,-1.11198,4.07582,9.90458,0.839157,7.07895,-3.69922,51.6967,10,0,0,0
0,1405105819,606093,36.1784,33.3764,-10.4153,50.3124,-8.21059,-0.418469,3.76585,9.0427,2.52227,5.61585,0.523765,51.8696,9,0,0,0
0,1405105820,607096,30.6626,27.3507,-9.36507,42.1422,-7.95614,-0.32407,3.45607,8.68041,1.40962,6.42818,-0.979373,51.7702,10,0,0,0
0,1405105821,608097,23.3041,18.6182,-14.4832,33.1584,-9.05693,-0.65561,3.42785,9.70608,-0.12325,13.2375,-0.495282,51.7555,10,0,0,0
0,1405105822,609102,14.0405,12.5093,-21.6358,28.6658,-8.72697,-0.422916,2.94035,9.2187,0.873547,6.07829,-2.17766,51.9046,10,0,0,0
0,1405105823,610116,5.18275,6.7524,-19.0666,20.8804,-9.19286,-0.161943,3.36156,9.78954,2.47224,8.79127,-3.83727,51.8678,10,0,0,0
0,1405105824,611117,8.44828,-4.97237,-21.5571,23.6814,-8.49836,-1.20875,2.76697,9.01883,3.99318,5.1934,-0.941277,51.8674,10,0,0,0
0,1405105825,612121,7.87004,2.59796,-16.3537,18.3338,-8.89312,-1.07512,2.61185,9.33087,2.36371,5.44082,-1.83495,51.8186,10,0,0,0
0,1405105826,613125,6.41313,13.3252,-21.8461,26.3807,-9.16721,-1.04516,2.76441,9.63183,2.3508,4.42478,0.566829,51.8069,11,0,0,0
0,1405105827,614130,6.01279,4.03682,-18.1214,19.515,-8.79426,-0.798496,3.5349,9.51168,1.53074,-1.81813,-3.25225,51.8327,11,0,0,0
0,1405105828,615131,24.5954,27.077,-16.694,40.2093,-9.27994,-0.919557,3.1648,9.84778,2.73938,13.8126,-0.913726,51.8603,11,0,0,0
0,1405105829,616137,21.659,19.0761,-13.8746,32.0237,-8.59899,-0.831455,2.74948,9.06607,0.766516,7.94593,-2.43139,51.8641,10,0,0,0
0,1405105830,617142,28.316,22.5223,-15.4538,39.343,-8.62735,-1.15127,2.66721,9.10333,5.19709,5.25733,-4.54983,52.0193,10,0,0,0
0,1405105831,618147,28.8384,27.5942,-10.0454,41.1583,-8.10356,-3.54889,4.20047,9.79317,24.8139,5.83746,-17.1755,51.9608,10,0,0,0
0,1405105832,619151,20.6036,33.1807,-5.83999,39.4914,-9.57626,-1.81849,2.71486,10.1184,38.5016,7.06269,-23.5313,52.0065,11,0,0,0
0,1405105833,620155,6.65971,25.247,-1.76656,26.1703,-8.56378,-1.85596,3.35223,9.38192,36.8253,8.75314,-18.8612,52.0563,10,0,0,0
0,1405105834,621156,-5.95122,24.8448,-5.51003,26.135,-8.63472,-1.53448,3.18014,9.32879,31.8578,5.16653,-18.0041,52.0701,10,0,0,0
0,1405105835,622158,-2.50667,15.4731,0.839213,15.6973,-8.39949,0.248677,3.52871,9.114,10.9021,5.41486,-8.29289,52.0586,10,0,0,0
0,1405105836,623163,-8.25852,29.2593,-3.41343,30.5934,-8.81344,-0.360245,3.88576,9.63876,6.88226,8.78922,-4.0244,52.0062,10,0,0,0
0,1405105837,624165,-6.75007,12.0216,2.87993,14.0846,-7.90012,-0.935144,3.79765,8.81524,3.72534,5.30414,-2.83404,52.0842,9,0,0,0
0,1405105838,625171,-10.4955,22.96,-0.334843,25.2474,-8.77429,-0.508691,3.7201,9.54391,3.74567,4.68623,-1.37125,52.0973,11,0,0,0
0,1405105839,626174,1.91991,10.7433,-3.50431,11.4623,-8.76901,-0.702197,3.64474,9.52222,1.0394,7.25781,-1.18828,52.0639,10,0,0,0
0,1405105840,627178,2.31915,12.1673,6.21793,13.8594,-8.60891,-0.613812,3.60265,9.3525,0.45323,5.56144,-1.20306,52.204,9,0,0,0
0,1405105841,628181,-0.10441,13.928,7.30697,15.7287,-8.48484,-0.788538,3.47753,9.20367,0.829488,5.54749,-1.01753,52.1819,9,0,0,0
0,1405105842,629187,-1.75256,16.6028,6.23829,17.8224,-8.32466,-0.5673,3.95313,9.23304,0.985983,4.73283,-2.36516,52.2865,11,0,0,0
0,1405105843,630191,-1.4968,17.1291,6.13772,18.257,-8.41251,-0.623927,3.92915,9.3058,1.58296,6.48251,-1.60154,52.2737,6,0,0,0
0,1405105844,631195,-1.73821,15.8071,5.80393,16.9285,-8.54208,-0.50903,3.91296,9.40943,1.56272,6.86508,-1.89437,52.3171,10,0,0,0
0,1405105845,632203,-0.621444,15.0617,5.82581,16.1611,-8.37501,-0.657762,3.87255,9.25041,0.681362,5.67698,-1.0974,52.3147,10,0,0,0
0,1405105846,633208,-0.250977,14.0293,5.76611,15.1701,-8.4039,-0.641446,3.83947,9.26167,2.22058,5.71245,-0.349384,52.3592,9,0,0,0
0,1405105847,634214,0.372926,12.8584,5.96724,14.1805,-8.37648,-0.649368,4.01951,9.31362,0.980575,5.80899,-0.42234,52.3259,10,0,0,0
0,1405105848,635218,1.81618,12.0297,5.32784,13.2815,-8.44311,-0.586443,3.7976,9.27641,2.04582,6.12009,-0.934507,52.389,9,0,0,0
0,1405105849,636220,2.49317,11.0381,4.49335,12.1756,-8.42005,-0.64783,3.90415,9.30373,1.0252,5.75572,-2.36689,52.4882,11,0,0,0
0,1405105850,637221,2.72665,9.57007,2.14253,10.179,-8.38274,-0.624316,3.76343,9.20997,0.954188,6.19484,-2.15669,52.4732,10,0,0,0
0,1405105851,638222,2.00023,9.45871,-0.75313,9.69718,-8.4403,-0.661594,3.86812,9.308,1.61071,6.52919,-1.61183,52.4477,10,0,0,0
0,1405105852,639226,0.339644,11.9862,-5.78652,13.3142,-8.56363,-0.685349,3.8903,9.4308,0.705776,5.52619,-0.792225,52.417,11,0,0,0
0,1405105853,640232,-3.52762,18.0464,-8.84436,20.4044,-8.34457,-0.747849,4.10483,9.32956,2.03614,6.49297,-1.01253,52.498,11,0,0,0
0,1405105854,641236,-5.90785,22.7373,-7.9574,24.8034,-8.22954,-0.67329,4.14141,9.23742,1.55888,6.26885,-1.58004,52.4983,10,0,0,0
0,1405105855,642239,-6.31561,22.3052,-7.78344,24.4538,-8.31213,-0.674307,3.98073,9.24081,1.60162,5.48611,-0.999958,52.4245,11,0,0,0
0,1405105856,643245,-5.80482,22.5977,-8.12657,24.7062,-8.30983,-0.675878,3.94865,9.22507,1.85379,5.56673,-0.985666,52.5018,10,0,0,0
0,1405105857,644246,-6.52408,22.7909,-7.62746,24.9032,-8.37211,-0.672,3.87353,9.24922,1.59508,6.00308,-1.30141,52.4102,9,0,0,0
0,1405105858,645257,-6.30862,22.8242,-7.54671,24.8534,-8.34934,-0.652996,3.93674,9.25396,1.55996,5.94768,-1.13748,52.5663,11,0,0,0
0,1405105859,646262,-6.5834,22.7026,-7.57305,24.8213,-8.38863,-0.64457,3.88662,9.26771,2.11996,5.90347,-1.36693,52.6043,10,0,0,0
0,1405105860,647266,-7.06596,22.7882,-7.33546,24.9608,-8.37974,-0.671996,3.90775,9.2705,0.998371,5.76681,0.00632413,52.573,11,0,0,0
0,1405105861,648267,-6.85661,22.9507,-7.71473,25.1648,-8.38123,-0.697477,3.85818,9.25295,1.36621,6.03871,-2.17571,52.6251,10,0,0,0
0,1405105862,649268,-7.30028,23.1674,-6.81206,25.2275,-8.3703,-0.662925,3.8726,9.24654,0.812659,6.04004,-1.99242,52.6513,10,0,0,0
0,1405105863,650274,-7.52062,24.1228,-6.48777,26.0876,-8.41408,-0.660608,3.83548,9.2706,0.985704,6.52876,-1.11207,52.5604,10,0,0,0
0,1405105864,651277,-9.09778,23.2173,-4.62943,25.3623,-8.44352,-0.638268,3.83149,9.29412,1.35324,6.19955,-1.72909,52.6249,9,0,0,0
0,1405105865,652281,-10.4154,23.0509,-1.29282,25.3278,-8.4468,-0.652962,3.86539,9.31214,1.52605,5.74678,-1.50905,52.685,11,0,0,0
0,1405105866,653285,-11.5729,19.7349,2.00217,22.9654,-8.28892,-0.683001,4.02292,9.23887,0.903132,6.77012,-1.03765,52.602,11,0,0,0
0,1405105867,654288,-12.4659,17.421,3.47297,21.7014,-8.32147,-0.676339,4.00028,9.25778,1.0313,4.33639,-0.869652,52.6515,11,0,0,0
0,1405105868,655293,-12.6456,17.0175,3.87708,21.5532,-8.34638,-0.653486,3.95051,9.25719,1.21765,5.57829,-1.874,52.6841,11,0,0,0
0,1405105869,656301,-12.6507,16.6599,3.68641,21.2411,-8.36547,-0.671352,3.96577,9.28219,1.30128,5.58728,-1.83876,52.551,12,0,0,0
0,1405105870,657310,-12.0248,17.3165,3.78582,21.4194,-8.38606,-0.661642,3.86137,9.25602,2.53335,4.95021,-1.32937,52.4558,12,0,0,0
0,1405105871,658316,-12.6494,15.7471,3.87763,20.5673,-8.35402,-0.639816,3.91186,9.24671,1.50767,5.95491,-0.915651,52.6119,10,0,0,0
0,1405105872,659318,-13.0931,15.0241,3.77491,20.2831,-8.37037,-0.700838,3.99417,9.30094,1.32556,5.9019,-1.30515,52.6203,11,0,0,0
0,1405105873,660323,-12.8826,15.0172,4.10341,20.2068,-8.37156,-0.670486,3.89816,9.25895,1.47696,5.96506,0.100964,52.6756,12,0,0,0
0,1405105874,661329,-13.2114,14.8492,3.86995,20.2489,-8.3424,-0.697771,3.89749,9.23434,0.425956,6.0992,-1.56752,52.6844,11,0,0,0
0,1405105875,662333,-12.8683,14.935,3.64226,20.0478,-8.37686,-0.673496,3.94928,9.28559,1.71904,5.3204,-1.77473,52.6486,11,0,0,0
0,1405105876,663337,-13.5254,14.9698,3.49101,20.4749,-8.37191,-0.677765,3.95724,9.28482,0.560236,6.55683,-1.11083,52.7006,11,0,0,0
0,1405105877,664338,-13.2696,15.1137,3.68894,20.4479,-8.34624,-0.673073,3.87733,9.22748,1.96715,5.61192,-1.22842,52.6532,11,0,0,0
0,1405105878,665342,-13.1904,14.764,3.8554,20.17,-8.37158,-0.696117,3.87695,9.25196,1.10264,6.47356,-1.46935,52.6666,10,0,0,0
0,1405105879,666345,-13.5949,14.2231,3.60441,20.0027,-8.33494,-0.673337,3.9169,9.234,2.26468,7.65358,-1.27885,52.754,12,0,0,0
0,1405105880,667347,-13.0181,14.6807,4.14104,20.0535,-8.38858,-0.67534,3.93391,9.28979,1.40228,5.18468,-1.00282,52.6657,11,0,0,0
0,1405105881,668352,-13.2311,14.4592,3.94852,19.993,-8.44972,-0.655338,3.75842,9.27108,1.3843,7.61606,-0.529275,52.6843,11,0,0,0
0,1405105882,669357,-13.4119,14.0673,4.20188,19.8853,-8.30597,-0.62709,4.03287,9.25454,0.0896835,5.53922,-1.01598,52.7729,10,0,0,0
0,1405105883,670359,-13.4867,13.5414,3.81924,19.4897,-8.35282,-0.671858,3.94059,9.26009,0.426171,5.81846,-0.672196,52.7323,9,0,0,0
0,1405105884,671361,-13.7269,13.7667,3.7056,19.791,-8.3383,-0.645182,3.96877,9.25714,1.31066,6.17166,-1.66902,52.704,11,0,0,0
0,1405105885,672366,-14.377,14.2613,3.5597,20.5611,-8.3386,-0.664605,3.96555,9.25741,1.89159,6.35602,-0.520676,52.6815,9,0,0,0
0,1405105886,673368,-13.7333,13.9929,3.09119,19.8484,-8.38429,-0.64065,3.91166,9.27404,0.898085,7.54806,-1.03772,52.6902,10,0,0,0
0,1405105887,674374,-13.9098,14.3802,3.4182,20.2967,-8.3685,-0.652023,3.92549,9.26641,0.567027,5.36819,-0.732187,52.7205,11,0,0,0
0,1405105888,675379,-14.0705,13.8687,3.3529,20.039,-8.34932,-0.676015,3.96426,9.26734,0.434193,7.24765,-1.04478,52.7723,10,0,0,0
0,1405105889,676380,-13.5448,14.1457,4.03832,19.9968,-8.38189,-0.623701,3.89622,9.26421,1.43117,5.54375,-0.945139,52.7621,10,0,0,0
0,1405105890,677386,-13.7437,13.8302,3.17593,19.7548,-8.36744,-0.671537,3.8755,9.24579,1.70269,4.61096,-0.361959,52.7812,11,0,0,0
0,1405105891,678389,-14.157,13.8977,3.86143,20.2108,-8.38446,-0.71541,3.92279,9.28435,1.69306,5.70741,-1.18096,52.7138,11,0,0,0
0,1405105892,679393,-14.2977,13.8239,3.61671,20.2139,-8.3852,-0.691092,3.89336,9.27079,2.08026,6.95515,-0.412225,52.7062,10,0,0,0
0,1405105893,680403,-14.2188,13.5408,4.11681,20.0618,-8.36076,-0.69901,3.92028,9.26064,1.2795,5.07648,-1.41314,52.6617,11,0,0,0
0,1405105894,681406,-14.1827,13.9725,3.94718,20.2968,-8.36436,-0.684791,3.93083,9.2673,0.161842,4.52234,-1.90875,52.7425,11,0,0,0
0,1405105895,682407,-13.9177,13.6819,3.63576,19.8524,-8.34793,-0.689313,3.89662,9.23833,1.39425,6.81028,-2.27137,52.7369,10,0,0,0
0,1405105896,683410,-13.6005,13.999,3.05322,19.7552,-8.35782,-0.703532,3.88982,9.24548,0.454607,6.17142,-1.00418,52.7311,10,0,0,0
0,1405105897,684414,-13.4826,13.871,3.19785,19.6065,-8.37188,-0.671014,3.86222,9.24421,0.457103,5.95843,-1.14681,52.7788,11,0,0,0
0,1405105898,685420,-14.4396,13.7077,3.76942,20.2636,-8.36153,-0.698037,3.90056,9.25294,0.782325,6.37822,0.0574595,52.7311,11,0,0,0
0,1405105899,686424,-13.8162,13.6833,3.18861,19.7049,-8.36214,-0.674809,3.95786,9.27607,1.28227,5.30273,-0.910203,52.8371,10,0,0,0
0,1405105900,687432,-13.9731,13.9098,3.79314,20.0778,-8.35391,-0.673458,3.89288,9.24099,1.0015,6.56507,-1.73884,52.9138,11,0,0,0
0,1405105901,688436,-13.213,13.8051,3.75853,19.4754,-8.39764,-0.664502,3.91418,9.28885,1.80611,4.79275,-2.11044,52.824,11,0,0,0
0,1405105902,689438,-13.3102,13.6492,4.60701,19.6135,-8.32826,-0.677391,3.9348,9.23587,0.483718,5.81255,-1.58145,52.9781,11,0,0,0
0,1405105903,690441,-13.8036,14.5063,4.34583,20.4904,-8.37219,-0.664406,3.90724,9.26291,1.00312,4.82217,-0.807178,52.8614,10,0,0,0
0,1405105904,691445,-13.9992,13.6174,4.44219,20.0286,-8.32948,-0.695694,3.9712,9.25389,1.95893,5.68813,-0.508469,52.8225,10,0,0,0
0,1405105905,692453,-13.5225,14.8666,4.33433,20.5588,-8.40276,-0.601307,3.91509,9.28955,1.82581,5.78642,-1.19936,52.9851,11,0,0,0
0,1405105906,693457,-13.7957,13.5948,4.67534,19.9248,-8.37124,-0.70913,3.9173,9.26961,1.50928,7.23249,-1.41676,52.9638,10,0,0,0
0,1405105907,694463,-13.6932,13.5805,4.78889,19.8712,-8.40812,-0.695843,3.95492,9.31784,0.272182,5.10517,-2.39016,52.9513,10,0,0,0
0,1405105908,695473,-13.2355,13.976,4.46313,19.7593,-8.31253,-0.682012,3.91323,9.21285,1.30828,6.50984,-0.670165,53.0276,10,0,0,0
0,1405105909,696476,-13.6417,13.7485,4.31716,19.8433,-8.36027,-0.697692,3.94331,9.26988,1.78055,5.65596,-0.783084,53.0642,10,0,0,0
0,1405105910,697481,-13.6709,14.0652,4.33289,20.0872,-8.38221,-0.70829,3.93946,9.28884,1.59912,5.66649,-1.26666,52.9226,9,0,0,0
0,1405105911,698486,-13.9447,13.6725,4.1314,19.9615,-8.33844,-0.666416,3.94528,9.24873,1.39775,5.39342,-0.499454,52.9472,10,0,0,0
0,1405105912,699490,-13.7805,14.2292,4.67781,20.3532,-8.3798,-0.679045,3.91485,9.27406,1.46461,6.03774,-0.421898,53.0206,11,0,0,0
0,1405105913,700496,-13.3825,14.1361,4.14541,19.9024,-8.36107,-0.652408,3.90853,9.25256,1.27425,5.72132,-1.57091,52.9835,10,0,0,0
0,1405105914,701497,-13.3843,14.2994,4.2836,20.0489,-8.37195,-0.6842,3.93352,9.27525,1.40792,5.7032,-0.905419,52.9888,10,0,0,0
0,1405105915,702502,-14.0782,14.3689,4.5608,20.6267,-8.34744,-0.672021,3.89696,9.23676,2.05237,5.00898,-1.31779,53.0836,11,0,0,0
0,1405105916,703504,-13.4052,14.6607,4.84427,20.4476,-8.3565,-0.672374,3.93877,9.26267,2.04638,6.40062,-1.4311,53.0517,11,0,0,0
0,1405105917,704508,-13.7897,14.434,4.81917,20.5358,-8.39074,-0.722319,3.87897,9.27215,1.56331,5.58984,-1.74933,53.0382,11,0,0,0
0,1405105918,705514,-13.5477,13.8755,4.42425,19.8908,-8.39297,-0.658073,3.8939,9.27564,1.00246,6.06329,-2.02222,53.1133,10,0,0,0
0,1405105919,706520,-13.635,14.2449,4.80828,20.2966,-8.3588,-0.696399,3.92238,9.25957,2.46675,4.94911,-0.339633,53.2491,10,0,0,0
0,1405105920,707521,-13.4882,14.1231,5.30371,20.2366,-8.38287,-0.656869,3.9014,9.26957,1.42669,5.31276,-0.783329,53.1503,10,0,0,0
0,1405105921,708526,-13.7501,13.7676,4.42723,19.9553,-8.35326,-0.696108,3.93246,9.25882,1.75717,5.89039,-1.16801,53.2205,10,0,0,0
0,1405105922,709530,-14.0414,13.6472,4.6661,20.1291,-8.34134,-0.667207,3.95764,9.25668,1.96594,6.16799,-0.882951,53.2291,10,0,0,0
0,1405105923,710534,-13.5508,14.8676,4.89609,20.7037,-8.35823,-0.677667,3.91161,9.2531,0.378589,5.80411,-1.50461,53.2847,8,0,0,0
0,1405105924,711535,-13.206,14.3088,4.43913,19.9711,-8.35964,-0.663506,3.94388,9.26704,1.70908,5.01318,-0.237117,53.3384,10,0,0,0
0,1405105925,712536,-13.2242,15.5007,4.92556,20.9622,-8.35031,-0.746606,3.88894,9.2417,2.29128,6.48434,-0.789402,53.298,10,0,0,0
0,1405105926,713545,-13.2344,14.7105,4.79425,20.3601,-8.39622,-0.634768,3.89143,9.27592,1.06687,6.13512,-0.862322,53.2939,9,0,0,0
0,1405105927,714547,-13.2448,14.3995,4.90052,20.1689,-8.39436,-0.650918,3.91615,9.28575,1.25853,5.57688,-0.813544,53.4029,10,0,0,0
0,1405105928,715549,-13.7161,14.2901,5.29728,20.5037,-8.35838,-0.726515,3.87707,9.2424,2.27232,6.78766,-1.0369,53.2594,10,0,0,0
0,1405105929,716553,-13.2248,14.7374,4.93024,20.4057,-8.32772,-0.64748,3.97023,9.2484,1.35097,6.48822,-1.65485,53.1352,10,0,0,0
0,1405105930,717557,-13.4202,13.8994,5.40274,20.062,-8.35251,-0.692451,3.90296,9.24538,1.48561,5.35761,-1.8962,53.1946,9,0,0,0
0,1405105931,718561,-13.4441,14.2087,4.75648,20.1309,-8.33425,-0.69911,3.91493,9.23446,1.30278,6.08232,-1.65912,53.247,9,0,0,0
0,1405105932,719564,-13.4018,13.947,4.56508,19.8738,-8.35045,-0.666155,3.88926,9.23581,1.3825,6.57498,-1.78237,53.3398,11,0,0,0
0,1405105933,720566,-13.6551,14.4534,4.69257,20.4299,-8.35731,-0.686572,3.91368,9.25381,0.979212,5.84518,-1.04093,53.4556,10,0,0,0
0,1405105934,721572,-13.3175,14.3484,4.62832,20.1161,-8.26444,-0.828038,3.99481,9.21657,2.01526,4.98095,-1.18637,53.3125,10,0,0,0
0,1405105935,722579,-13.697,14.5681,5.21095,20.6637,-8.36223,-0.672754,3.95664,9.27548,0.674273,5.91346,-0.996144,53.4386,11,0,0,0
0,1405105936,723582,-13.5521,14.1337,5.3839,20.3078,-8.35093,-0.677939,3.9391,9.25819,0.838164,5.94365,-2.13044,53.3289,10,0,0,0
0,1405105937,724583,-13.0754,14.7747,5.01807,20.3577,-8.3753,-0.686152,3.95418,9.2872,2.00562,5.36646,-0.475395,53.5114,10,0,0,0
0,1405105938,725591,-13.5511,14.2621,5.60119,20.4552,-8.37504,-0.648961,3.9189,9.26932,1.10425,5.97988,-0.961975,53.4405,11,0,0,0
0,1405105939,726595,-13.1338,13.7296,4.75693,19.5864,-8.35713,-0.675872,3.9074,9.2502,1.42123,7.0007,-1.04268,53.4612,12,0,0,0
0,1405105940,727601,-12.9711,14.1637,5.07689,19.8654,-8.36923,-0.713457,3.85333,9.24127,0.726688,6.13568,-0.699784,53.3947,9,0,0,0
0,1405105941,728607,-13.2988,13.8959,4.77165,19.8172,-8.34076,-0.708525,3.94119,9.2522,0.368466,7.4226,-0.709383,53.5069,11,0,0,0
0,1405105942,729613,-13.1989,13.8948,4.68389,19.7285,-8.35479,-0.6862,3.90213,9.24662,1.86549,5.91872,-1.32367,53.5773,11,0,0,0
0,1405105943,730618,-13.637,14.6651,4.918,20.6209,-8.4005,-0.643479,3.9328,9.29782,0.52993,5.78724,-0.2954,53.5684,9,0,0,0
0,1405105944,731619,-13.8373,13.7964,4.80653,20.1225,-8.37464,-0.657725,3.95232,9.28375,1.01925,6.61289,-2.04539,53.5466,10,0,0,0
0,1405105945,732627,-13.7593,13.6417,4.59928,19.9141,-8.41283,-0.633036,3.9328,9.30825,2.49765,5.79593,-1.80875,53.5348,12,0,0,0
0,1405105946,733631,-13.5965,14.0407,5.22489,20.2313,-8.32976,-0.695512,3.93904,9.24038,1.06313,5.19691,-0.476374,53.4389,10,0,0,0
0,1405105947,734634,-13.8663,13.8594,4.66551,20.1525,-8.3228,-0.703689,3.89257,9.215,0.492949,6.14346,-1.76866,53.6113,10,0,0,0
0,1405105948,735641,-13.3251,13.9772,4.8569,19.9125,-8.3397,-0.670843,3.92413,9.24118,1.29341,5.99532,-0.38573,53.5399,10,0,0,0
0,1405105949,736646,-13.02,13.9445,4.38328,19.5751,-8.36161,-0.703692,3.9087,9.25687,2.28162,5.68527,-0.934259,53.5631,11,0,0,0
0,1405105950,737652,-13.2046,13.7663,4.83786,19.6794,-8.36359,-0.655273,3.92836,9.26343,1.14412,6.39028,-0.544481,53.6497,10,0,0,0
0,1405105951,738653,-13.4746,13.7172,4.4425,19.7348,-8.34819,-0.651553,3.93293,9.2512,1.41662,6.43316,-0.1959,53.5131,10,0,0,0
0,1405105952,739655,-13.0511,14.1409,4.69163,19.8068,-8.35915,-0.672931,3.90695,9.25162,0.707566,4.89361,-0.836017,53.7208,9,0,0,0
0,1405105953,740659,-13.9202,13.9079,4.50393,20.1863,-8.37368,-0.663404,3.90051,9.26134,0.616441,6.46195,-1.42113,53.674,10,0,0,0
0,1405105954,741663,-13.4175,13.75,4.13385,19.6515,-8.35909,-0.677059,3.92364,9.25893,0.76213,6.06148,-1.50369,53.6543,11,0,0,0
0,1405105955,742666,-13.6491,13.5081,4.63109,19.7538,-8.36476,-0.679151,3.9174,9.26156,2.12877,6.08052,-0.49507,53.7076,11,0,0,0
0,1405105956,743671,-13.7488,14.0294,4.53268,20.1594,-8.38947,-0.733575,3.89748,9.27964,1.56427,6.22088,-1.58178,53.6738,11,0,0,0
0,1405105957,744679,-14.033,14.3241,4.63826,20.582,-8.3179,-0.663572,3.99803,9.25267,1.01742,5.55811,-1.69182,53.747,11,0,0,0
0,1405105958,745682,-13.4479,13.4747,4.53096,19.5689,-8.39664,-0.658264,3.94913,9.30229,1.66875,6.0828,-1.93361,53.8282,10,0,0,0
0,1405105959,746688,-13.2815,13.9599,4.56741,19.8024,-8.39764,-0.769847,3.91169,9.29593,0.594536,6.18107,-0.769561,53.819,9,0,0,0
0,1405105960,747690,-13.4365,14.0008,5.18135,20.085,-8.41,-0.688682,3.93025,9.30856,0.269245,6.17446,-0.833992,53.7589,9,0,0,0
0,1405105961,748693,-13.4743,14.3137,4.78164,20.2312,-8.34515,-0.713644,3.92709,9.25056,1.56455,5.75448,-2.57832,53.8033,11,0,0,0
0,1405105962,749698,-13.5794,13.528,4.59683,19.7113,-8.34634,-0.69526,3.91286,9.2442,0.82511,5.43226,-0.654726,53.862,10,0,0,0
0,1405105963,750701,-13.9098,13.6068,4.82752,20.0483,-8.36648,-0.683521,3.95237,9.27828,1.59911,5.60892,-1.57135,53.7659,8,0,0,0
0,1405105964,751708,-13.6917,13.6826,4.35881,19.8413,-8.35159,-0.678363,3.93582,9.25742,1.68877,6.16507,-0.238841,53.8788,12,0,0,0
0,1405105965,752718,-13.8242,13.7943,5.01724,20.1634,-8.34556,-0.68303,3.95119,9.25887,1.79255,6.69837,-0.989107,53.8941,11,0,0,0
0,1405105966,753724,-13.7842,13.2882,4.78465,19.735,-8.34709,-0.690825,3.92214,9.24848,1.79888,6.41027,-0.464763,53.9167,10,0,0,0
0,1405105967,754730,-13.2187,13.8205,4.57974,19.665,-8.38112,-0.646018,3.91954,9.27488,1.17828,6.42902,-0.700416,53.787,11,0,0,0
0,1405105968,755735,-13.7892,13.9645,4.78829,20.2009,-8.37881,-0.702103,3.9287,9.28074,1.27429,5.43347,-1.96327,53.7091,11,0,0,0
0,1405105969,756741,-14.0228,14.0337,4.60868,20.3673,-8.34925,-0.67553,3.9342,9.25442,2.11581,7.39103,0.609426,53.8439,11,0,0,0
0,1405105970,757742,-14.0327,14.0177,4.77239,20.4007,-8.34519,-0.6761,3.93696,9.25197,1.77569,6.50819,-2.12481,53.7729,10,0,0,0
0,1405105971,758746,-13.7673,14.2799,4.21207,20.278,-8.35635,-0.68092,3.94431,9.26552,1.71247,6.30181,-0.495559,53.789,12,0,0,0
0,1405105972,759752,-14.096,14.4487,4.50028,20.6813,-8.36891,-0.709064,3.91183,9.26519,0.466475,5.88893,-1.49556,53.8468,11,0,0,0
0,1405105973,760757,-13.7508,14.056,4.43538,20.1576,-8.35552,-0.720767,3.94296,9.26721,2.32722,5.34902,-1.47011,53.8789,11,0,0,0
0,1405105974,761761,-13.5385,13.8129,4.24814,19.8024,-8.41882,-0.691917,3.78974,9.25837,2.41148,5.58399,-1.4646,53.7145,12,0,0,0
0,1405105975,762764,-14.1029,14.2268,4.61665,20.5574,-8.36161,-0.695855,3.95069,9.27408,1.70094,5.71252,0.181471,53.777,10,0,0,0
0,1405105976,763765,-14.0464,13.7923,4.53888,20.2023,-8.35868,-0.682612,3.91828,9.25669,1.58546,5.7211,-0.143744,53.8497,10,0,0,0
0,1405105977,764767,-14.2759,13.3165,4.73427,20.0884,-8.33424,-0.672115,3.93298,9.24011,2.19078,6.27051,0.702675,53.8392,12,0,0,0
0,1405105978,765768,-13.4792,14.0517,4.77006,20.0473,-8.35071,-0.680896,3.93937,9.25833,1.29309,7.29376,-0.896361,53.8689,11,0,0,0
0,1405105979,766769,-13.8387,13.8109,5.05374,20.1938,-8.37479,-0.713574,3.91745,9.27322,1.92499,6.37157,-1.47874,53.8991,11,0,0,0
0,1405105980,767771,-13.3276,13.6051,4.98924,19.688,-8.35212,-0.69654,3.87349,9.23293,1.32897,5.9928,-0.569001,53.7936,12,0,0,0
0,1405105981,768774,-13.3939,14.0705,4.89871,20.0343,-8.38173,-0.712908,3.9104,9.27646,1.75769,5.83365,-1.57477,53.947,11,0,0,0
0,1405105982,769778,-13.4423,14.0627,4.41517,19.9487,-8.38842,-0.682436,3.91372,9.28162,1.09379,6.9386,-0.624596,53.9247,11,0,0,0
0,1405105983,770790,-13.635,14.0353,4.34828,20.0452,-8.37137,-0.701746,3.94429,9.28061,1.60358,5.02918,-3.16035,53.895,12,0,0,0
0,1405105984,771792,-12.9824,14.5607,5.27985,20.2097,-8.41098,-0.546009,3.88117,9.27934,0.525332,5.80383,-3.01168,53.9761,10,0,0,0
0,1405105985,772797,-13.1308,14.5695,5.28698,20.3136,-8.38384,-0.661137,3.94832,9.29059,2.02401,6.40852,-0.533979,53.9558,10,0,0,0
0,1405105986,773807,-12.7572,16.0559,4.58061,21.0123,-8.31003,-0.726188,3.95145,9.23027,2.41029,6.46447,-1.54212,53.9755,11,0,0,0
0,1405105987,774813,-12.8889,15.6921,4.54637,20.8095,-8.28536,-0.729353,3.86649,9.17218,0.870715,5.87201,-2.24209,53.9277,10,0,0,0
0,1405105988,775818,-12.5303,15.8967,4.87462,20.8201,-8.3796,-0.709443,3.9114,9.2747,2.16213,7.20454,-1.11234,53.9934,9,0,0,0
0,1405105989,776824,-13.9149,14.378,5.33874,20.7088,-8.37387,-0.74714,3.9164,9.2746,0.738121,5.73803,-0.905705,53.9476,10,0,0,0
0,1405105990,777829,-12.6053,13.7883,5.51158,19.4779,-8.40761,-0.759116,3.91871,9.30702,1.05969,6.7166,-1.92492,53.9812,10,0,0,0
0,1405105991,778834,-12.6066,14.2285,5.75694,19.8625,-8.328,-0.649517,3.94145,9.23648,1.11832,6.75099,-0.69087,53.9398,10,0,0,0
0,1405105992,779837,-12.2228,14.3952,5.65709,19.7135,-8.33224,-0.704172,3.9532,9.24932,1.98455,6.45772,-1.81498,53.9829,9,0,0,0
0,1405105993,780843,-12.3782,14.2521,5.78128,19.7425,-8.34951,-0.692958,3.96784,9.27029,0.954816,6.34888,-1.55353,53.949,9,0,0,0
0,1405105994,781847,-12.6701,15.1773,5.06863,20.4101,-8.325,-0.708562,3.9739,9.252,1.24235,6.15609,-1.32677,53.9075,11,0,0,0
0,1405105995,782852,-13.5197,14.975,6.14932,21.0914,-8.37756,-0.697955,3.94538,9.28638,0.554657,7.06504,-1.06816,53.9238,11,0,0,0
0,1405105996,783856,-13.3085,14.6482,5.85376,20.6386,-8.32737,-0.687689,3.98432,9.25704,0.811516,6.58141,-1.03935,54.0195,9,0,0,0
0,1405105997,784862,-12.43,14.6163,5.66305,20.0053,-8.33462,-0.722343,3.94374,9.24882,2.07383,6.06906,-1.26332,53.9395,9,0,0,0
0,1405105998,785863,-12.7975,14.4713,5.32798,20.0395,-8.33131,-0.712486,3.9372,9.24229,1.70404,5.72519,-0.797656,53.951,11,0,0,0
0,1405105999,786867,-12.7533,14.4385,4.94292,19.8884,-8.31899,-0.714848,3.9789,9.24923,1.14661,6.2855,-1.78594,53.9761,11,0,0,0
0,1405106000,787868,-13.1107,14.7191,5.77707,20.5406,-8.33084,-0.698325,3.95202,9.2471,0.808883,5.83917,-1.14196,53.8663,10,0,0,0
0,1405106001,788871,-13.5305,14.6705,5.13905,20.6084,-8.36201,-0.645794,3.97093,9.27947,0.456891,5.85656,-1.79935,54.0118,11,0,0,0
0,1405106002,789877,-12.905,14.4898,5.68286,20.2186,-8.3489,-0.729566,3.96735,9.27234,1.6586,7.28341,-0.600321,53.8455,11,0,0,0
0,1405106003,790881,-12.9858,13.9015,4.6496,19.5832,-8.37408,-0.694433,3.87291,9.2524,0.6652,6.05092,-0.552175,53.7169,8,0,0,0
0,1405106004,791883,-13.244,14.0143,4.61854,19.8276,-8.43003,-0.690842,3.87995,9.30573,1.00037,5.77382,-0.16218,53.6424,10,0,0,0
0,1405106005,792890,-13.7093,13.5112,4.82398,19.8435,-8.40864,-0.670135,3.87177,9.28143,1.32397,6.3104,-2.23804,53.6176,10,0,0,0
0,1405106006,793893,-13.5673,13.937,5.1065,20.1094,-8.34975,-0.714016,3.93382,9.25759,2.50648,5.84495,-0.949832,53.5541,11,0,0,0
0,1405106007,794894,-13.4513,13.954,4.868,19.9837,-8.34162,-0.705899,3.91907,9.24338,1.96111,6.29413,-0.82128,53.5391,11,0,0,0
0,1405106008,795896,-13.0965,14.0019,4.99285,19.8116,-8.3771,-0.721443,3.91594,9.27528,0.87879,5.84352,-1.18532,53.4199,10,0,0,0
0,1405106009,796902,-13.7582,14.0759,4.88503,20.2801,-8.39255,-0.660945,3.93674,9.29353,2.3308,4.94264,-1.26375,53.2357,11,0,0,0
0,1405106010,797903,-13.7782,13.4559,4.78366,19.8439,-8.36286,-0.657236,3.93473,9.26561,1.30478,6.05748,-1.86576,53.0764,11,0,0,0
0,1405106011,798907,-13.1413,13.6309,4.64447,19.4953,-8.3626,-0.67379,3.92997,9.26454,1.28483,6.60387,-2.57849,52.8817,10,0,0,0
0,1405106012,799909,-13.8445,13.6704,5.25774,20.1543,-8.34625,-0.630894,3.93105,9.24722,2.16492,5.82172,-1.94667,52.8234,11,0,0,0
0,1405106013,800910,-13.2156,14.0251,4.71293,19.8385,-8.35334,-0.71875,3.89732,9.24576,1.80542,5.73778,-1.30331,52.961,11,0,0,0
0,1405106014,801916,-13.2523,13.4692,4.90065,19.5207,-8.33375,-0.680689,3.95459,9.24951,1.41778,5.49955,-1.64847,52.9605,10,0,0,0
0,1405106015,802917,-13.4286,14.0679,4.90696,20.0577,-8.34634,-0.666979,3.98925,9.27472,0.777386,6.65886,-2.51628,53.0053,11,0,0,0
0,1405106016,803924,-13.3753,13.8129,5.13923,19.9024,-8.33487,-0.712141,3.94739,9.24982,1.50336,4.7717,-1.77763,53.0234,11,0,0,0
0,1405106017,804927,-13.4767,13.5316,4.91887,19.7211,-8.37625,-0.683466,3.95833,9.28962,1.18893,5.64585,-1.9585,53.2062,10,0,0,0
0,1405106018,805933,-13.2753,13.6924,4.73427,19.6502,-8.39784,-0.6723,3.92922,9.29594,1.52312,5.48594,0.36898,53.1692,11,0,0,0
0,1405106019,806937,-13.2368,13.2272,4.95902,19.3589,-8.38731,-0.665292,3.96059,9.29924,1.47742,6.4468,-1.85025,53.2242,11,0,0,0
0,1405106020,807938,-13.4117,13.5561,5.50934,19.8493,-8.3401,-0.666294,3.91731,9.23832,2.19468,6.33018,-0.808072,53.3332,11,0,0,0
0,1405106021,808942,-13.9016,13.1824,4.63009,19.7096,-8.35462,-0.683442,3.90868,9.24903,1.39667,6.08359,-1.38164,53.3597,11,0,0,0
0,1405106022,809945,-13.818,12.9379,4.61991,19.4851,-8.3611,-0.663283,3.92758,9.26142,1.64177,6.20367,-1.56631,53.2276,11,0,0,0
0,1405106023,810950,-13.7308,13.2364,5.03422,19.7252,-8.35371,-0.676156,3.93976,9.26085,2.22117,6.41214,-1.58663,53.4617,11,0,0,0
0,1405106024,811952,-13.4916,13.0408,4.76523,19.3595,-8.38326,-0.674047,3.92189,9.2798,1.35033,6.76537,-0.780866,53.407,11,0,0,0
0,1405106025,812957,-13.7564,12.6751,4.54517,19.2498,-8.35604,-0.67353,3.8641,9.23083,1.5435,6.01327,-1.20968,53.4655,9,0,0,0
0,1405106026,813962,-13.908,13.2763,4.57093,19.7633,-8.36096,-0.667289,3.90395,9.25158,0.603552,6.06562,-1.60121,53.3298,10,0,0,0
0,1405106027,814963,-13.8283,13.0007,4.42586,19.4892,-8.35447,-0.664821,3.93587,9.25907,0.87734,5.1068,-1.32586,53.1934,10,0,0,0
0,1405106028,815966,-14.0602,12.7654,4.50514,19.5177,-8.35934,-0.648058,3.93635,9.26247,2.10157,6.68816,-0.688404,53.0745,10,0,0,0
0,1405106029,816972,-14.5872,12.9563,4.57264,20.039,-8.35948,-0.656133,3.95837,9.27254,0.495778,5.48412,-1.67867,53.1123,9,0,0,0
0,1405106030,817976,-14.008,12.9268,4.64992,19.6201,-8.35176,-0.690553,3.93959,9.26008,1.11188,6.63961,-1.62184,53.1317,10,0,0,0
0,1405106031,818979,-14.4073,12.8925,4.52974,19.8571,-8.37648,-0.687482,3.86858,9.25224,0.807728,6.10544,-0.512033,53.1139,10,0,0,0
0,1405106032,819982,-13.9023,12.6747,4.31777,19.3019,-8.34917,-0.674454,3.92359,9.24976,2.20785,5.97128,-1.0939,53.0158,10,0,0,0
0,1405106033,820987,-14.1541,13.0006,4.57446,19.7555,-8.35725,-0.689739,3.94163,9.26585,0.707508,5.26628,-1.75836,52.9876,10,0,0,0
0,1405106034,821991,-14.0731,13.7179,4.7515,20.2191,-8.34568,-0.699598,3.90668,9.24132,1.31034,5.85175,-1.63215,53.0396,10,0,0,0
0,1405106035,822994,-14.0996,12.1513,4.30548,19.1047,-8.35359,-0.638782,3.92404,9.25141,0.335697,6.2284,-1.21999,53.088,9,0,0,0
0,1405106036,823995,-14.2457,12.7534,4.10878,19.5569,-8.3525,-0.65302,3.91139,9.24606,0.56443,6.51222,-1.4722,52.9371,10,0,0,0
0,1405106037,824996,-13.7875,12.8401,4.70532,19.4192,-8.33243,-0.639039,3.8825,9.21475,1.46032,6.3029,-1.55885,52.7078,9,0,0,0
0,1405106039,826000,-13.2949,13.2748,4.41791,19.3001,-8.3944,-0.689898,3.87337,9.27064,1.24785,6.67936,0.190733,52.7047,10,0,0,0
0,1405106040,827002,-14.0352,12.5665,4.92759,19.4727,-8.38946,-0.678489,3.9431,9.2947,1.26473,6.67342,0.225676,52.6888,10,0,0,0
0,1405106041,828006,-13.776,13.4229,5.58406,20.0284,-8.37835,-0.651619,3.93977,9.28134,1.24639,5.6396,-1.98354,52.6845,8,0,0,0
0,1405106042,829009,-13.9461,12.3084,4.50048,19.1375,-8.34301,-0.629161,3.99569,9.27185,1.58633,5.17996,-1.87244,52.6599,10,0,0,0
0,1405106043,830011,-13.8249,12.5312,4.99044,19.3148,-8.3434,-0.623672,3.91972,9.23935,1.14355,6.93509,-0.20631,52.5707,10,0,0,0
0,1405106044,831012,-13.7724,13.2769,4.96516,19.7638,-8.37362,-0.574965,3.93709,9.27085,1.86959,5.9986,-1.41753,52.3031,9,0,0,0
0,1405106045,832018,-14.1093,13.4528,4.78827,20.0743,-8.36191,-0.66462,3.88888,9.2459,1.17003,5.73317,-1.42954,52.1845,10,0,0,0
0,1405106046,833019,-13.798,12.5458,4.93845,19.2917,-8.31294,-0.646109,3.88823,9.20004,1.6853,6.30206,-1.57483,52.1908,10,0,0,0
0,1405106047,834021,-14.2451,12.7245,4.78636,19.6912,-8.4186,-0.667428,4.00333,9.34585,0.928217,6.31934,-1.43374,51.9229,10,0,0,0
0,1405106048,835027,-13.9353,13.7308,5.11684,20.2216,-8.39994,-0.675795,3.9559,9.3094,0.0864892,5.74202,-2.16704,51.6624,12,0,0,0
0,1405106049,836033,-14.0532,13.2405,5.07282,19.9633,-8.3641,-0.628908,3.95416,9.27303,1.61568,6.77323,-1.53005,51.7295,11,0,0,0
0,1405106050,837037,-13.7924,12.719,4.898,19.3905,-8.36695,-0.665089,3.91249,9.26044,1.28221,4.93237,-0.829826,51.8104,10,0,0,0
0,1405106051,838040,-13.8483,12.6944,5.02047,19.4455,-8.35793,-0.652094,3.93645,9.26153,0.753849,5.95965,-1.01389,51.7877,11,0,0,0
0,1405106052,839048,-13.819,13.0931,5.00129,19.6827,-8.34901,-0.687628,3.91845,9.24841,1.55425,5.32413,-0.98131,52.0227,10,0,0,0
0,1405106053,840050,-14.0942,12.9464,4.55913,19.6734,-8.3574,-0.647878,3.95449,9.26843,1.49292,5.16414,-1.27384,52.0171,10,0,0,0
0,1405106054,841060,-14.3574,12.7867,4.65387,19.7812,-8.3435,-0.641023,3.9602,9.25786,2.09732,6.7904,-0.960514,52.0078,11,0,0,0
0,1405106055,842062,-13.9631,13.2373,4.78661,19.8269,-8.32927,-0.688213,3.94324,9.24119,0.930125,5.87672,-1.82855,52.1074,11,0,0,0
0,1405106056,843066,-13.8162,13.2149,5.17692,19.8071,-8.36102,-0.648629,3.94483,9.26764,1.28118,5.01515,-1.58687,52.0887,10,0,0,0
0,1405106057,844071,-13.6873,12.7449,4.37696,19.2076,-8.3631,-0.656034,3.97341,9.28223,0.912956,4.79987,-1.61091,52.2028,10,0,0,0
0,1405106058,845075,-13.7556,13.2015,4.60171,19.6131,-8.37661,-0.631735,3.93809,9.27768,2.44783,5.95369,0.0349789,52.2176,10,0,0,0
0,1405106059,846081,-13.4997,12.6051,4.71137,19.0611,-8.34165,-0.674072,3.90763,9.23618,1.09412,6.29694,-1.1613,52.0688,8,0,0,0
0,1405106060,847087,-13.7577,12.9031,5.32405,19.5987,-8.32873,-0.670924,3.99793,9.2629,2.81375,5.40679,-0.598707,51.9421,10,0,0,0
0,1405106061,848090,-13.8814,13.4644,4.65166,19.8902,-8.37618,-0.643684,3.9048,9.26403,2.19724,5.92553,-2.25713,51.8317,11,0,0,0
0,1405106062,849094,-13.8534,12.3839,4.48922,19.1163,-8.35367,-0.647519,3.89701,9.24066,1.50479,4.89803,-0.430141,51.7217,11,0,0,0
0,1405106063,850095,-13.7471,12.7038,4.843,19.3345,-8.36591,-0.701182,3.93509,9.27173,0.51235,6.04321,-1.51433,51.5309,9,0,0,0
0,1405106064,851096,-14.106,12.7883,4.75808,19.6255,-8.34984,-0.743506,3.89794,9.24481,0.838619,5.89212,-0.82526,51.3641,8,0,0,0
0,1405106065,852103,-14.2265,12.4628,4.62846,19.4715,-8.35767,-0.673523,3.91141,9.25221,0.302497,6.23799,-0.383413,51.2746,11,0,0,0
0,1405106066,853106,-14.5723,12.2514,4.89787,19.658,-8.38149,-0.675343,3.92498,9.2796,0.475409,4.37902,-1.46537,51.1469,10,0,0,0
0,1405106067,854112,-13.7457,12.4356,4.64882,19.1102,-8.35755,-0.66039,3.9048,9.24836,1.41668,6.09779,-0.120194,50.9374,10,0,0,0
0,1405106068,855114,-13.9961,12.3835,4.30586,19.1776,-8.35277,-0.668229,3.91859,9.25044,1.10873,4.38625,-0.849247,50.8666,10,0,0,0
0,1405106069,856120,-13.5487,12.8859,4.976,19.3487,-8.38918,-0.664435,3.90653,9.27797,1.80684,5.28572,-0.196518,50.6759,11,0,0,0
0,1405106070,857121,-13.7249,13.3353,4.70683,19.7068,-8.36863,-0.683597,3.98162,9.29272,1.51003,5.63882,-1.596,50.5595,11,0,0,0
0,1405106071,858127,-14.2044,12.9275,4.52063,19.7312,-8.35405,-0.670758,3.92575,9.25482,2.44733,6.09437,-0.164793,50.5742,11,0,0,0
0,1405106072,859129,-13.8552,13.7202,5.1884,20.1774,-8.38089,-0.657755,3.93433,9.28176,1.73439,5.74676,-1.00142,50.6699,10,0,0,0
0,1405106073,860133,-13.9164,13.2846,4.70803,19.8069,-8.35977,-0.669055,3.93954,9.26571,1.8123,4.75556,-1.64642,50.7418,12,0,0,0
0,1405106074,861145,-13.7716,12.6973,4.63505,19.2966,-8.35443,-0.670456,3.90372,9.24581,1.57581,5.64972,-1.19289,50.7986,10,0,0,0
0,1405106075,862150,-13.8864,12.75,4.73981,19.4387,-8.37037,-0.652541,3.91996,9.2658,1.13834,4.95178,-0.741923,50.9555,10,0,0,0
0,1405106076,863153,-13.8601,13.067,4.85193,19.6568,-8.35303,-0.649506,3.93207,9.25506,1.74445,5.63876,-1.8371,50.9159,11,0,0,0
0,1405106077,864155,-14.1962,12.8334,4.98881,19.7767,-8.33822,-0.685122,3.93779,9.2467,1.28458,5.71126,-0.461432,50.9116,11,0,0,0
0,1405106078,865160,-14.1717,13.0931,4.79811,19.8818,-8.36944,-0.662257,3.91806,9.26485,1.14971,5.85805,-2.05868,50.8765,9,0,0,0
0,1405106079,866163,-14.0027,12.8445,4.86109,19.6134,-8.35351,-0.642564,3.93621,9.25677,1.96433,5.82269,-1.0644,50.8162,11,0,0,0
0,1405106080,867169,-13.8202,12.8469,4.28277,19.349,-8.37307,-0.652395,3.89666,9.2584,2.10181,5.95439,-1.34781,50.6801,10,0,0,0
0,1405106081,868173,-14.1186,13.0851,5.09172,19.9118,-8.34658,-0.65899,3.94252,9.25436,1.83728,5.87957,-1.11713,50.8196,9,0,0,0
0,1405106082,869176,-13.7818,13.4562,4.97816,19.8945,-8.37516,-0.65839,3.93617,9.2774,2.15729,4.60658,-2.27579,50.8805,10,0,0,0
0,1405106083,870179,-13.9019,12.9412,4.45487,19.5085,-8.37541,-0.666136,3.92699,9.27429,1.7379,5.32447,-0.464168,50.9907,10,0,0,0
0,1405106084,871184,-14.1752,12.5642,4.50279,19.4697,-8.36339,-0.677842,3.93608,9.26814,0.5383,4.76145,-0.816331,51.1065,9,0,0,0
0,1405106085,872190,-13.7999,12.9333,4.64803,19.4759,-8.36652,-0.634225,3.94532,9.27181,1.76272,5.21224,0.0897337,51.2332,11,0,0,0
0,1405106086,873195,-13.3467,13.7412,5.04224,19.8086,-8.35384,-0.682035,3.91451,9.25069,0.612185,5.26689,-1.54373,51.3244,10,0,0,0
0,1405106087,874196,-13.602,13.0827,5.01195,19.5267,-8.38029,-0.667485,3.93959,9.28413,2.05404,5.60502,-0.57558,51.2854,11,0,0,0
0,1405106088,875200,-14.2305,13.0261,5.30174,20.0073,-8.36475,-0.687431,3.91125,9.25956,1.21082,5.33365,-0.162275,51.3052,9,0,0,0
0,1405106089,876207,-13.5648,12.6871,4.68291,19.1545,-8.37417,-0.700806,3.9277,9.27603,0.510953,5.37213,-2.14189,51.439,11,0,0,0
0,1405106090,877210,-13.7587,13.2257,4.70699,19.6565,-8.35859,-0.659189,3.91667,9.25423,1.34639,6.64225,-1.14526,51.5088,11,0,0,0
0,1405106091,878216,-13.8436,12.7,4.74505,19.3765,-8.37527,-0.646544,3.94582,9.28077,2.02767,5.47136,-0.799536,51.5643,10,0,0,0
0,1405106092,879219,-13.885,13.6319,5.26615,20.1582,-8.37179,-0.67419,3.93201,9.27373,1.14098,4.19932,-0.576086,51.5058,11,0,0,0
0,1405106093,880225,-13.6845,13.1784,4.69315,19.5694,-8.34978,-0.66261,3.87903,9.23064,0.392657,6.1696,-1.33173,51.5521,11,0,0,0
0,1405106094,881230,-14.4008,12.8446,5.15394,19.9732,-8.35032,-0.647554,3.94548,9.25818,1.21792,4.56714,-1.6742,51.698,11,0,0,0
0,1405106095,882236,-14.1218,13.0423,4.51064,19.7451,-8.33829,-0.681467,3.90928,9.23439,1.32463,4.98585,-1.10762,51.7012,10,0,0,0
0,1405106096,883242,-13.8837,12.9458,4.57519,19.5265,-8.37416,-0.634433,3.94821,9.27995,1.24939,5.92527,-1.55727,51.8928,10,0,0,0
0,1405106097,884243,-13.9145,12.5831,4.52229,19.2976,-8.34137,-0.669879,3.93025,9.24522,1.6843,6.02441,-0.868747,51.938,10,0,0,0
0,1405106098,885249,-13.7094,12.5386,4.93762,19.2235,-8.33051,-0.698056,3.92267,9.23428,1.08402,5.19571,-1.03017,52.093,11,0,0,0
0,1405106099,886255,-13.6128,12.4496,4.60565,19.0135,-8.36108,-0.650528,3.91654,9.25582,1.64192,5.83483,-1.08849,52.1522,11,0,0,0
0,1405106100,887257,-14.0666,12.495,4.39167,19.3205,-8.3437,-0.677188,3.91749,9.24244,1.55225,5.8773,-1.61106,52.2297,10,0,0,0
0,1405106101,888264,-13.5323,12.5464,4.7594,19.0574,-8.35871,-0.712911,3.94184,9.26901,1.79664,5.30728,-0.163481,52.3145,11,0,0,0
0,1405106102,889266,-13.7446,12.8127,4.98095,19.4394,-8.34891,-0.626141,3.92037,9.24476,1.22085,5.35538,-0.952382,52.3864,9,0,0,0
0,1405106103,890272,-14.1683,12.1888,4.43109,19.2079,-8.34956,-0.696249,3.92729,9.25329,1.19588,6.06018,-1.01574,52.4959,11,0,0,0
0,1405106104,891274,-14.2617,12.5284,4.86199,19.5958,-8.34732,-0.658054,3.91035,9.2413,1.04139,6.66118,-0.461005,52.5469,10,0,0,0
0,1405106105,892280,-14.196,12.8511,4.91811,19.7703,-8.28412,-0.7012,3.93489,9.19792,0.946721,6.51295,-0.602415,52.5024,10,0,0,0
0,1405106106,893286,-13.9685,12.9255,4.67547,19.5971,-8.44316,-0.801416,3.95763,9.35906,0.931905,4.80542,-2.0576,52.3995,10,0,0,0
0,1405106107,894294,-13.6847,12.6133,4.45507,19.1367,-8.25456,-0.639451,4.13532,9.2546,1.03715,5.19554,-1.18292,52.2824,11,0,0,0
0,1405106108,895296,-14.4451,13.0048,4.7398,20.0063,-8.33272,-0.655345,4.09865,9.30928,2.01034,5.60972,-1.6067,52.3682,11,0,0,0
0,1405106109,896301,-13.4783,13.0209,4.55731,19.2867,-8.3486,-0.657055,3.88835,9.2331,1.31155,6.3942,-1.39146,52.2466,9,0,0,0
0,1405106110,897307,-13.6177,12.5721,4.33051,19.033,-8.36549,-0.654048,3.9426,9.2711,1.63123,6.36701,-1.6779,52.2294,11,0,0,0
0,1405106111,898312,-14.0837,12.9218,4.19395,19.5681,-8.42585,-0.639197,3.81719,9.27224,1.6686,5.03812,-0.715921,52.2817,11,0,0,0
0,1405106112,899318,-13.8415,12.861,4.79149,19.4923,-8.2152,-0.639734,3.96022,9.14232,1.58145,5.70327,-1.15558,52.3502,11,0,0,0
0,1405106113,900321,-14.3949,12.7601,4.33923,19.7196,-8.29859,-0.60011,3.98797,9.22662,2.39427,7.13689,-1.12809,52.3199,10,0,0,0
0,1405106114,901328,-14.1643,12.8326,4.00535,19.528,-8.32208,-0.668534,3.96267,9.24157,1.68935,5.94468,-2.27249,52.3452,10,0,0,0
0,1405106115,902330,-14.0219,13.8255,4.7604,20.2588,-8.36184,-0.65058,3.91896,9.25753,0.922223,6.78276,-1.01491,52.4965,10,0,0,0
0,1405106116,903335,-14.3464,12.9328,4.1603,19.7581,-8.35105,-0.534434,3.97282,9.26331,1.93266,5.85237,-1.74363,52.5824,11,0,0,0
0,1405106117,904336,-13.8239,13.1657,4.41063,19.5931,-8.32277,-0.74329,3.86528,9.2066,0.73213,5.41193,-1.45426,52.2978,10,0,0,0
0,1405106118,905338,-14.8054,11.8739,4.75554,19.5654,-8.38114,-0.591967,3.92742,9.27462,0.706709,5.13105,-0.161621,52.2206,7,0,0,0
0,1405106119,906341,-14.181,12.4538,4.2335,19.3422,-8.13693,-0.436153,4.04826,9.09881,1.43804,5.84553,-2.90131,52.1724,10,0,0,0
0,1405106120,907342,-13.853,13.056,4.20485,19.4948,-8.32821,-0.215465,3.84499,9.17548,2.915,4.99706,1.09103,52.08,11,0,0,0
0,1405106121,908348,-14.0243,12.1072,3.97579,18.9491,-8.34001,-0.589186,4.07883,9.30268,0.971169,6.3465,-0.620798,52.0026,8,0,0,0
0,1405106122,909351,-13.8064,12.4881,3.49906,18.9424,-8.41458,-0.565244,3.88354,9.28475,1.70695,6.38534,-1.88642,51.9411,11,0,0,0
0,1405106123,910356,-13.9152,12.1868,4.12126,18.9509,-8.35865,-0.533647,3.88879,9.23442,1.20799,5.63441,-1.09184,51.9767,11,0,0,0
0,1405106124,911361,-13.8663,12.4243,3.92136,19.0267,-8.36731,-0.546679,3.9497,9.26881,1.64438,5.421,-1.22991,52.2289,10,0,0,0
0,1405106125,912367,-13.7309,12.4607,3.80542,18.9285,-8.39414,-0.529576,3.90513,9.27319,1.77752,5.29937,-0.97596,52.2117,10,0,0,0
0,1405106126,913376,-14.0673,12.2931,3.69581,19.0439,-8.36467,-0.555527,3.91085,9.25047,0.780714,6.01927,-1.18806,52.1595,11,0,0,0
0,1405106127,914380,-13.9569,12.1374,3.72564,18.8677,-8.37069,-0.563143,3.95231,9.27396,1.06437,6.14199,-1.39923,52.4091,9,0,0,0
0,1405106128,915386,-13.964,12.128,3.82106,18.886,-8.37053,-0.506343,3.9626,9.27494,0.685392,6.62034,-1.01725,52.511,11,0,0,0
0,1405106129,916399,-13.8167,12.2143,3.62017,18.7935,-8.37906,-0.533989,3.9131,9.26316,0.897573,6.96587,-2.56297,52.5633,10,0,0,0
0,1405106130,917400,-14.1963,12.2177,3.85135,19.1217,-8.37563,-0.516758,3.91479,9.2598,1.39133,5.46851,-0.17589,52.6061,10,0,0,0
0,1405106131,918405,-13.7561,12.2896,3.70192,18.8141,-8.3735,-0.523367,3.88563,9.24595,0.821387,4.35593,-0.834434,52.5943,10,0,0,0
0,1405106132,919407,-13.6677,12.4597,3.91566,18.9046,-8.35516,-0.508038,3.92892,9.24679,1.41227,5.49815,-2.4299,52.582,11,0,0,0
0,1405106133,920413,-13.4986,12.4726,3.75128,18.7576,-8.36144,-0.562741,3.9185,9.25121,1.43031,4.96539,-0.618023,52.7339,9,0,0,0
0,1405106134,921417,-13.661,12.0056,4.38298,18.7074,-8.3714,-0.536457,3.88844,9.24598,1.11255,6.85003,-0.401777,52.7476,11,0,0,0
0,1405106135,922421,-13.8042,12.5576,3.84242,19.0529,-8.38457,-0.546922,3.92935,9.27577,2.01884,6.01747,-2.08213,52.7161,10,0,0,0
0,1405106136,923424,-13.2475,12.3249,4.18116,18.571,-8.35538,-0.515478,3.94363,9.25367,1.67467,4.79065,-2.94785,52.8388,11,0,0,0
0,1405106137,924427,-13.4667,12.5311,3.8293,18.7895,-8.35639,-0.557576,3.95753,9.26295,0.863817,5.64954,-0.976245,52.8651,10,0,0,0
0,1405106138,925432,-14.1757,12.7358,3.76339,19.4246,-8.3704,-0.558819,3.89015,9.24712,0.972964,5.11716,-1.24107,53.0292,11,0,0,0
0,1405106139,926437,-13.949,12.3644,3.43462,18.9539,-8.36895,-0.520899,3.90928,9.25166,2.18424,6.07138,-1.98625,53.0225,10,0,0,0
0,1405106140,927441,-14.0663,12.6091,3.73694,19.2565,-8.39741,-0.519983,3.95128,9.29513,1.68761,6.86829,-0.608143,53.073,11,0,0,0
0,1405106141,928447,-13.851,13.0136,3.86223,19.3938,-8.3695,-0.540408,3.89428,9.24694,1.94607,5.6413,-2.34613,53.0238,10,0,0,0
0,1405106142,929450,-13.4663,12.3256,3.77248,18.6412,-8.35344,-0.52668,3.94373,9.25258,1.26264,5.40948,-1.71363,52.907,11,0,0,0
0,1405106143,930455,-14.0421,12.6205,3.54119,19.2093,-8.35731,-0.52207,3.86522,9.22264,1.49593,5.4646,-1.20115,52.8647,10,0,0,0
0,1405106144,931456,-13.4762,13.0688,4.15738,19.2272,-8.36381,-0.55464,3.88086,9.237,0.495186,6.27883,-2.07083,52.7897,11,0,0,0
0,1405106145,932461,-14.1029,12.3176,4.04393,19.1564,-8.39068,-0.541531,3.91646,9.27553,1.01273,5.78906,-1.71158,52.7969,10,0,0,0
0,1405106146,933464,-13.2704,13.1315,4.15088,19.1251,-8.37615,-0.523758,3.9376,9.27032,1.43893,6.71997,-1.57332,52.8309,10,0,0,0
