0,1405007694,utime,,bx(uT),by(uT),bz(uT),,B(uT),ax,,,,ay,,az,,,,,A,,,,,gx,,,gy,,,,gz,,,T(C),rate,,track,tilt,roll
0,1405007694,mins,,-1000,-1000,-1000,,,,,0,,,,-2000,-2000,-2000,,0,,,-2000,,-2000,-2000,-2000,,0,,0,,-180,-180
0,1405007694,maxs,,,1000,,1000,,1000,,,,1000,,,2000,,2000,,2000,2000,,2000,,,2000,,2000,,2000,,37000,360,180,180
0,1405007694,attr,,,,,F,,,,,F,,,,,F,,,,,,F,,,,,,F,,,,,F,,,,F,,,,,F,,,,,F,,,,,,F,,,,,F,,,,,F,,,,,I,F,F,F
0,1405007695,2193,-1.97248,3.50153,-0.504587,4.05043,-1.40552,-0.105579,0.633472,1.54529,-0.0347826,0.533333,0.0115942,4.39778,0,0,0,0
0,1405007696,3198,-11.3369,20.6498,-3.27876,23.7842,-8.46651,-0.597884,3.84515,9.31796,1.85218,2.86587,-1.62743,44.177,11,0,0,0
0,1405007697,4204,-11.3595,21.2803,-3.38662,24.359,-8.44732,-0.605705,3.85416,9.30476,1.62204,2.28651,-0.915252,44.1986,11,0,0,0
0,1405007698,5207,-11.4449,21.0157,-3.11569,24.132,-8.46348,-0.608476,3.83869,9.31323,1.24811,3.80755,-1.18809,44.181,7,0,0,0
0,1405007699,6211,-11.093,21.3889,-3.0243,24.2835,-8.46402,-0.612118,3.83274,9.31151,2.37969,3.58846,-0.708769,44.2584,11,0,0,0
0,1405007700,7216,-11.6531,20.7732,-2.32808,23.932,-8.45536,-0.583852,3.8346,9.30259,1.40916,3.17098,-0.895395,44.2283,11,0,0,0
0,1405007701,8219,-11.1898,21.1125,-2.77508,24.0551,-8.48864,-0.610962,3.77831,9.3116,1.56471,3.86484,-1.36708,44.198,8,0,0,0
0,1405007702,9626,-11.2499,20.5779,-3.15462,23.6635,-8.49652,-0.606992,3.80795,9.33058,1.11198,4.54851,0.151414,44.1748,2,0,0,0
0,1405007703,10630,-11.3105,21.3036,-2.84599,24.2873,-8.43013,-0.62712,3.81972,9.27634,2.97626,3.84761,-0.801872,44.0706,7,0,0,0
0,1405007704,11634,-11.0339,21.037,-2.93334,23.9354,-8.4674,-0.602124,3.82229,9.30963,3.35553,4.2208,-0.816895,44.1238,7,0,0,0
0,1405007705,12640,-11.1555,21.2713,-2.7515,24.1761,-8.4693,-0.591313,3.82246,9.31074,3.044,3.83626,-1.38664,44.0983,6,0,0,0
0,1405007706,13651,-11.069,21.4044,-3.04944,24.2893,-8.46382,-0.587732,3.81224,9.30134,1.03469,2.82917,-1.7005,44.164,7,0,0,0
0,1405007707,14659,-11.0043,21.2586,-2.71483,24.0913,-8.46393,-0.575722,3.80287,9.29684,2.34897,3.55524,-1.56748,44.0816,6,0,0,0
0,1405007708,15664,-10.9691,21.2579,-3.21267,24.1359,-8.47213,-0.619936,3.84847,9.32588,2.80208,3.12705,-0.602069,44.1833,8,0,0,0
0,1405007709,16669,-10.9217,21.7686,-3.68821,24.6325,-8.46256,-0.57351,3.79547,9.29244,1.15834,3.54287,-0.902164,44.2482,7,0,0,0
0,1405007710,17675,-11.8231,21.4054,-3.28328,24.673,-8.44259,-0.592637,3.80659,9.28001,0.47405,2.8645,-1.43976,44.0564,7,0,0,0
0,1405007711,18683,-13.6024,19.8705,-7.15117,25.1197,-8.46323,-0.603464,3.832,9.30992,0.736283,2.61686,-0.554234,44.115,7,0,0,0
0,1405007712,19690,-14.2705,21.1641,-5.19804,26.0497,-8.47021,-0.576456,3.7964,9.29997,2.16,4.82804,0.0832593,44.0163,7,0,0,0
0,1405007713,20697,-14.5955,20.9533,-5.3077,26.0814,-8.45428,-0.644755,3.82292,9.30082,1.72503,3.25967,-2.21842,43.9574,6,0,0,0
0,1405007714,21702,-14.4127,20.9087,-5.655,26.0169,-8.46372,-0.589735,3.78421,9.28992,0.293241,2.90004,-1.56314,43.9264,7,0,0,0
0,1405007715,22708,-14.7518,20.8981,-5.44233,26.1527,-8.4653,-0.608769,3.82042,9.30739,1.12255,3.28595,-1.36602,43.9953,7,0,0,0
0,1405007716,23713,-14.5133,21.0603,-5.53754,26.1693,-8.48819,-0.589063,3.81924,9.32647,2.68815,2.65494,-1.05,43.9481,6,0,0,0
0,1405007717,24718,-14.5421,20.7443,-5.06122,25.8344,-8.45419,-0.614288,3.83932,9.30543,0.220821,4.09426,-1.0444,43.8519,7,0,0,0
0,1405007718,25723,-14.414,21.1856,-5.617,26.2324,-8.49634,-0.545208,3.81218,9.32833,3.17653,3.17207,-0.0494673,43.7011,6,0,0,0
0,1405007719,26727,-14.4121,20.8113,-5.17071,25.8371,-8.47172,-0.609781,3.84603,9.32383,1.08216,3.23611,-1.33087,43.8735,7,0,0,0
0,1405007720,27731,-14.7264,20.5965,-5.11129,25.8304,-8.4706,-0.594059,3.83988,9.31926,0.985346,3.31058,-1.24643,43.8169,6,0,0,0
0,1405007721,28734,-15.0227,20.538,-5.03603,25.9394,-8.46083,-0.607294,3.82014,9.30311,2.53543,4.58596,-0.526059,43.8277,7,0,0,0
0,1405007722,29739,-14.556,20.8522,-5.38674,25.9944,-8.46674,-0.608866,3.8171,9.30735,2.32876,2.04546,-1.82355,43.9883,6,0,0,0
0,1405007723,30743,-14.4851,20.8568,-5.51946,25.9863,-8.46987,-0.625199,3.8463,9.32329,2.81266,3.50738,-0.673122,44.0618,6,0,0,0
0,1405007724,31746,-14.4933,20.8307,-5.52294,25.9707,-8.47176,-0.598948,3.79921,9.30395,1.72793,3.87257,-0.143408,44.0705,7,0,0,0
0,1405007725,32771,-14.4449,21.0119,-5.57586,26.1007,-8.44586,-0.6042,3.82848,9.29273,1.89473,3.04519,0.448715,44.076,4,0,0,0
0,1405007726,33775,-15.0472,20.6968,-5.46282,26.1652,-8.46442,-0.609557,3.82643,9.30911,2.16227,4.19411,-1.19762,44.2162,9,0,0,0
0,1405007728,35426,-14.8931,20.5901,-5.21956,25.9422,-8.46712,-0.591122,3.82773,9.31092,1.87282,4.09003,-1.13322,44.1941,6,0,0,0
0,1405007729,36427,-14.8973,20.705,-5.5502,26.1043,-8.48593,-0.580931,3.79425,9.31369,3.50632,3.76772,-1.39536,44.3143,7,0,0,0
0,1405007730,37431,-14.8799,20.5767,-5.2033,25.9207,-8.49903,-0.542872,3.80232,9.32662,2.73213,2.92742,-2.36173,44.1318,8,0,0,0
0,1405007731,38432,-14.5809,20.7108,-5.66429,25.9543,-8.45973,-0.567531,3.85109,9.31236,1.76518,4.03829,-0.916489,43.9304,12,0,0,0
0,1405007732,39433,-14.4874,21.2722,-5.30661,26.2783,-8.43874,-0.629114,3.81702,9.2832,2.23691,4.00287,-0.516896,43.9386,11,0,0,0
0,1405007733,40434,-14.4112,20.6485,-5.47758,25.7691,-8.46886,-0.560491,3.82676,9.3102,0.979937,3.51946,-1.2129,44.0518,10,0,0,0
0,1405007734,41437,-14.7102,20.826,-5.38011,26.0587,-8.43238,-0.634625,3.84392,9.28889,2.18904,3.54998,-2.96599,43.9429,10,0,0,0
0,1405007735,42439,-14.8557,20.6746,-4.80273,25.9075,-8.46082,-0.607531,3.8662,9.32213,0.840976,2.62994,-0.444745,43.9747,10,0,0,0
0,1405007736,43443,-14.2676,20.7306,-5.52705,25.7657,-8.44937,-0.604936,3.83619,9.29914,2.06622,4.17302,-1.42951,43.9652,9,0,0,0
0,1405007737,44446,-14.613,21.1105,-5.24157,26.2043,-8.48068,-0.615559,3.81926,9.32135,2.33779,2.14054,-1.573,43.9272,10,0,0,0
0,1405007738,45450,-14.5266,20.9809,-5.56903,26.1196,-8.4615,-0.584082,3.81007,9.2981,1.6622,4.31415,-1.00603,43.9635,11,0,0,0
0,1405007739,46456,-14.3476,20.8838,-5.33381,25.8927,-8.47408,-0.565675,3.87276,9.33425,2.82382,2.24171,-0.111907,44.1551,11,0,0,0
0,1405007740,47460,-14.565,21.1766,-5.13041,26.209,-8.46842,-0.612234,3.82076,9.31059,2.34158,3.2713,-1.49278,44.1604,10,0,0,0
0,1405007741,48462,-14.8841,20.9324,-5.01332,26.1693,-8.43331,-0.574384,3.8697,9.29652,2.54343,3.47637,-0.854436,44.0585,12,0,0,0
0,1405007742,49465,-14.3501,20.793,-5.29481,25.813,-8.48055,-0.614048,3.85,9.33377,2.58474,3.18177,-0.35696,44.1283,10,0,0,0
0,1405007743,50469,-14.6584,21.0778,-4.94201,26.1451,-8.47521,-0.606745,3.85318,9.32975,1.17387,2.8585,-0.410247,44.1851,10,0,0,0
0,1405007744,51473,-14.381,21.0286,-5.30354,26.022,-8.47194,-0.597509,3.83538,9.31884,2.00222,2.69148,-0.745917,44.3014,11,0,0,0
0,1405007745,52475,-15.4198,20.4328,-5.04005,26.0897,-8.45181,-0.619451,3.82431,9.29743,1.14588,3.82588,-1.00429,44.3056,11,0,0,0
0,1405007746,53478,-14.8993,20.4141,-4.94552,25.7524,-8.42967,-0.583093,3.82305,9.27443,2.58882,3.33406,-1.17414,44.3202,10,0,0,0
0,1405007747,54480,-14.1954,20.9858,-4.99139,25.823,-8.4746,-0.604537,3.81808,9.31462,2.76222,3.23408,-0.461824,44.2665,11,0,0,0
0,1405007748,55481,-14.7036,20.95,-5.28132,26.1341,-8.48618,-0.600005,3.86912,9.34587,1.3817,3.19139,-0.432148,44.4117,9,0,0,0
0,1405007749,56483,-14.5388,20.922,-5.73331,26.1147,-8.45067,-0.615121,3.82852,9.29783,1.92858,2.92749,-1.06984,44.3228,11,0,0,0
0,1405007750,57484,-14.2747,20.777,-5.23145,25.7452,-8.48836,-0.615103,3.79603,9.31882,2.15547,2.83807,0.133672,44.4534,10,0,0,0
0,1405007751,58488,-14.6059,20.9413,-5.4446,26.1058,-8.47424,-0.593304,3.76231,9.29084,2.05444,1.92542,-1.51592,44.4678,9,0,0,0
0,1405007753,60640,-14.5911,21.0623,-5.5726,26.2216,-8.46219,-0.605996,3.85533,9.31877,3.02088,3.18096,-0.658687,44.4516,5,0,0,0
0,1405007754,61647,-14.5723,20.8379,-5.52649,26.0214,-8.48472,-0.606534,3.84263,9.33403,1.56724,2.89966,-0.0869663,44.5844,7,0,0,0
0,1405007755,62653,-14.3251,21.0388,-5.33665,26.0061,-8.47732,-0.608169,3.81914,9.31776,2.71971,3.24227,-1.01769,44.6206,7,0,0,0
0,1405007756,63657,-14.5233,21.0406,-5.29767,26.1094,-8.46769,-0.62115,3.83535,9.31652,1.4262,3.15218,-0.467536,44.5436,6,0,0,0
0,1405007757,64664,-14.5699,20.7806,-5.62374,25.995,-8.45166,-0.598358,3.83509,9.30035,1.90868,3.00619,-0.774602,44.7086,7,0,0,0
0,1405007758,65673,-14.3735,20.7632,-5.21664,25.786,-8.46781,-0.613976,3.84727,9.32106,2.38793,3.13392,-1.09706,44.7835,6,0,0,0
0,1405007759,66681,-14.4887,21.0854,-5.36736,26.1405,-8.48668,-0.597641,3.82714,9.32888,2.51505,2.2359,-1.0736,44.6278,5,0,0,0
0,1405007760,67682,-14.4794,20.9891,-5.26574,26.0369,-8.48478,-0.602903,3.823,9.32579,2.0695,4.39505,0.102884,44.7319,7,0,0,0
0,1405007761,68691,-14.2677,20.8903,-5.24879,25.8365,-8.45919,-0.629926,3.82125,9.30358,3.10072,3.07289,-1.32314,44.7442,6,0,0,0
0,1405007763,70717,-14.3488,20.9578,-5.26053,25.9383,-8.44233,-0.619405,3.83404,9.29282,0.297358,3.64031,-1.91995,44.7637,5,0,0,0
0,1405007764,71726,-14.3179,20.698,-5.61536,25.7864,-8.45775,-0.621507,3.84384,9.31101,3.441,4.31756,0.236136,44.8653,5,0,0,0
0,1405007765,72738,-14.4824,20.8898,-5.56714,26.0215,-8.46469,-0.605604,3.85,9.31882,0.917244,4.31139,-2.10253,44.84,6,0,0,0
0,1405007766,73743,-14.2784,21.0133,-5.48652,25.9911,-8.48318,-0.612443,3.82221,9.32463,2.84099,4.33104,0.288039,44.9393,5,0,0,0
0,1405007768,75518,-14.4111,21.0439,-5.37947,26.0665,-8.48112,-0.617889,3.82243,9.32321,1.87809,3.62856,-1.41684,44.8462,4,0,0,0
0,1405007769,76522,-14.5285,20.9587,-5.37036,26.0612,-8.44352,-0.605723,3.8461,9.29798,0.786794,4.29678,-0.82399,44.8608,6,0,0,0
0,1405007770,77528,-14.5166,20.9961,-5.52211,26.1163,-8.46701,-0.595699,3.8187,9.30739,1.81317,4.34761,-1.79614,44.9106,8,0,0,0
0,1405007771,78537,-14.4929,20.8839,-5.67733,26.0464,-8.46142,-0.606713,3.83107,9.3081,4.28604,3.45498,-1.80318,44.8432,5,0,0,0
0,1405007772,79539,-14.2109,20.7856,-5.39133,25.7499,-8.487,-0.628842,3.81688,9.32701,1.91542,3.84971,-0.323114,44.8797,6,0,0,0
0,1405007773,80541,-14.4471,21.1126,-5.34712,26.1353,-8.46697,-0.603416,3.82694,9.31124,0.924036,3.60849,-1.07884,44.8178,6,0,0,0
0,1405007774,81546,-14.396,21.0675,-4.75092,25.9549,-8.47787,-0.582692,3.81376,9.31443,1.24465,2.69494,-0.890952,45.0243,6,0,0,0
0,1405007775,82547,-14.6329,20.7639,-5.47319,25.9849,-8.4591,-0.617927,3.84466,9.31234,3.28682,3.55886,-1.42501,44.9196,6,0,0,0
0,1405007776,83553,-14.6482,21.0555,-5.72787,26.2814,-8.48464,-0.616233,3.82129,9.32583,3.22543,3.47693,-1.14415,44.9416,6,0,0,0
0,1405007777,84562,-14.4628,21.0221,-5.43477,26.089,-8.45455,-0.630101,3.82966,9.30284,2.59045,2.6961,-0.735578,44.9703,6,0,0,0
0,1405007778,85575,-14.677,21.0351,-5.52163,26.237,-8.44907,-0.581526,3.81655,9.28929,1.48908,3.37167,-1.34157,45.0424,6,0,0,0
0,1405007779,86582,-14.5827,20.6895,-5.80531,25.9694,-8.45459,-0.627368,3.8265,9.30138,2.77526,3.17579,-1.62962,45.035,5,0,0,0
0,1405007780,87585,-14.3115,21.0742,-5.46014,26.0529,-8.44451,-0.589875,3.82513,9.2892,2.27816,3.49062,-1.66113,44.9977,8,0,0,0
0,1405007781,88592,-14.4126,20.7619,-5.53009,25.872,-8.44094,-0.595032,3.81334,9.28144,2.6693,3.81072,-1.20219,45.1272,6,0,0,0
0,1405007782,89599,-14.1389,21.4656,-5.48481,26.2823,-8.46891,-0.62382,3.82478,9.31346,2.59946,4.21647,-0.153196,45.0973,7,0,0,0
0,1405007783,90606,-14.4105,20.4977,-5.51733,25.6566,-8.47721,-0.595346,3.85114,9.33,-0.124902,3.81667,-1.95379,45.1283,6,0,0,0
0,1405007784,91610,-14.3439,20.977,-5.93039,26.0951,-8.48066,-0.600473,3.84983,9.33292,2.20751,5.11648,-1.23386,45.1427,7,0,0,0
0,1405007785,92617,-14.2576,21.3179,-5.72424,26.2773,-8.45865,-0.620867,3.81515,9.29998,2.33249,3.1206,-0.0279426,45.2432,7,0,0,0
0,1405007786,93624,-14.6085,20.6661,-5.00088,25.7974,-8.44453,-0.599203,3.84451,9.29782,0.564793,2.03964,-2.04657,45.2559,6,0,0,0
0,1405007787,94625,-14.4935,20.6621,-5.27023,25.7829,-8.46024,-0.578394,3.83532,9.30698,1.87233,3.97324,-1.28098,45.2009,6,0,0,0
0,1405007788,95632,-14.4247,20.9683,-5.5289,26.0444,-8.45902,-0.599752,3.8139,9.29842,2.33128,4.2356,-1.34865,45.1758,6,0,0,0
0,1405007789,96637,-14.6661,20.6784,-5.40573,25.9213,-8.47912,-0.589921,3.81479,9.31645,2.4373,2.13774,0.0320056,45.2556,7,0,0,0
0,1405007790,97640,-14.1707,21.0441,-5.65955,25.9941,-8.47917,-0.63815,3.8828,9.34771,1.57541,3.78981,-0.965031,45.163,7,0,0,0
0,1405007791,98642,-14.4652,21.0645,-5.66704,26.1738,-8.4676,-0.599334,3.79451,9.29827,1.74954,3.22948,-0.928856,45.2704,7,0,0,0
0,1405007792,99645,-14.5149,20.9446,-4.92936,25.9549,-8.48997,-0.602733,3.8267,9.33202,2.46372,4.99519,-1.8883,45.1942,7,0,0,0
0,1405007793,100651,-14.576,20.7948,-5.43814,25.9703,-8.44587,-0.64801,3.81905,9.29181,0.598469,4.32966,0.0675398,45.2647,6,0,0,0
0,1405007794,101660,-14.1721,21.5248,-5.20919,26.2926,-8.47026,-0.626326,3.84331,9.32248,1.20664,3.43554,-0.5574,45.1976,7,0,0,0
0,1405007795,102666,-14.6186,20.7976,-5.12506,25.9328,-8.45774,-0.582353,3.80542,9.29267,3.80239,2.97828,-0.718159,45.1547,6,0,0,0
0,1405007796,103675,-14.6659,20.4977,-5.58854,25.8162,-8.47433,-0.608859,3.83107,9.31998,1.47746,3.94848,-0.28603,45.1995,5,0,0,0
0,1405007797,104700,-14.7822,20.8043,-5.69691,26.1494,-8.45991,-0.580126,3.80784,9.2955,2.03643,3.37733,-1.40481,45.162,6,0,0,0
0,1405007798,105704,-14.1267,21.1736,-5.37602,26.0151,-8.46711,-0.55894,3.80318,9.29884,2.18603,2.36163,-0.597096,45.1825,6,0,0,0
0,1405007799,106706,-14.2932,21.0485,-5.31294,25.9916,-8.45453,-0.615345,3.80676,9.29242,1.79925,2.78558,-0.789531,45.2609,7,0,0,0
0,1405007800,107714,-14.1445,21.3698,-5.57424,26.2261,-8.46324,-0.589896,3.81993,9.3041,0.800326,4.26389,-0.87737,45.3458,6,0,0,0
0,1405007801,108716,-14.4654,20.9393,-5.61791,26.0627,-8.46937,-0.601963,3.82594,9.31292,0.510367,3.57716,-0.449398,45.2339,6,0,0,0
0,1405007802,109729,-14.1093,21.0772,-5.64748,25.9849,-8.46337,-0.615393,3.82042,9.30607,1.24953,3.68828,-1.08246,45.2105,6,0,0,0
0,1405007803,110733,-14.3213,21.1287,-5.47658,26.1058,-8.46735,-0.587669,3.82244,9.30873,1.86369,3.73612,-0.165363,45.2895,5,0,0,0
0,1405007804,111734,-14.4796,20.9123,-5.39906,26.0026,-8.47145,-0.586168,3.79207,9.29994,1.47921,3.51582,-1.17115,45.3255,7,0,0,0
0,1405007805,112744,-14.1178,21.1426,-5.22016,25.9532,-8.45399,-0.60898,3.81787,9.29607,3.04269,2.47643,0.396838,45.3649,6,0,0,0
0,1405007806,113750,-14.5882,20.7349,-5.46631,25.9351,-8.47194,-0.612738,3.83182,9.31837,1.02083,3.97134,-1.01817,45.4133,7,0,0,0
0,1405007807,114762,-14.5375,20.9554,-5.24425,26.0378,-8.46453,-0.587887,3.80153,9.29761,3.08475,4.47449,-0.338472,45.3369,7,0,0,0
0,1405007809,116006,-14.6222,20.8879,-5.28764,26.0398,-8.45929,-0.588886,3.81461,9.29826,2.65178,4.35483,-0.641481,45.2988,1,0,0,0
0,1405007810,117012,-14.5332,20.9404,-5.1648,26.0075,-8.45349,-0.615856,3.82285,9.29812,0.736993,4.18641,0.303922,45.0917,7,0,0,0
0,1405007811,118020,-14.5284,20.7722,-5.27939,25.8927,-8.4671,-0.58371,3.83587,9.31378,1.91691,3.7692,-1.01706,45.0469,7,0,0,0
0,1405007812,119022,-14.332,21.0875,-5.5019,26.0836,-8.48108,-0.606183,3.81781,9.32051,2.38066,3.0942,-1.05968,45.0703,7,0,0,0
0,1405007813,120034,-14.4142,20.7762,-5.75001,25.9322,-8.45921,-0.605297,3.81378,9.2989,2.80978,2.48602,-0.678989,45.0668,5,0,0,0
0,1405007814,121044,-14.3731,20.7639,-5.52162,25.8498,-8.45659,-0.61914,3.80897,9.29545,2.52133,4.45057,-1.72798,45.0119,6,0,0,0
0,1405007815,122049,-14.7532,20.8744,-5.62938,26.1741,-8.47657,-0.60019,3.82521,9.31905,2.79342,4.2032,-1.21342,45.0009,5,0,0,0
0,1405007816,123054,-14.3853,20.9582,-5.47653,26.0034,-8.4703,-0.593488,3.82859,9.31431,3.52347,4.43844,-1.0356,44.9514,6,0,0,0
0,1405007817,124065,-14.2727,20.9976,-5.5371,25.986,-8.45688,-0.593302,3.81356,9.29592,2.603,3.51143,-2.60643,44.8461,8,0,0,0
0,1405007818,125073,-14.3508,20.7567,-5.56832,25.8417,-8.44185,-0.625044,3.8478,9.29845,3.12578,2.41774,-0.708346,45.0438,6,0,0,0
0,1405007819,126078,-14.5461,20.7835,-5.36399,25.929,-8.4675,-0.605552,3.8279,9.31225,2.39851,4.22431,-0.805709,44.9172,7,0,0,0
0,1405007820,127079,-14.2154,20.8724,-5.53916,25.8538,-8.47779,-0.620902,3.83802,9.32678,2.47171,3.16809,-0.773468,44.8775,7,0,0,0
0,1405007821,128083,-14.6203,21.1596,-5.3792,26.2758,-8.44325,-0.593625,3.82191,9.28697,1.33118,3.7821,-1.77434,44.9603,6,0,0,0
0,1405007822,129091,-14.5099,21.0654,-5.72526,26.2119,-8.4768,-0.624066,3.84663,9.32964,2.7323,3.86217,-0.650149,45.0009,7,0,0,0
0,1405007823,130094,-14.2632,20.8294,-5.51347,25.8399,-8.47067,-0.604788,3.86236,9.3293,2.66643,3.93259,-1.58881,45.1012,8,0,0,0
0,1405007824,131103,-14.3306,20.9169,-5.64708,25.9764,-8.47161,-0.611325,3.81945,9.3129,0.50379,4.27345,-0.549878,45.1862,7,0,0,0
0,1405007825,132110,-14.5811,20.7622,-5.57728,25.9766,-8.46685,-0.582393,3.82942,9.31081,2.03277,3.94456,-1.71191,45.0515,7,0,0,0
0,1405007826,133118,-14.9726,20.6395,-5.41086,26.0661,-8.47763,-0.65056,3.82626,9.32382,2.79108,3.54827,-1.34445,45.1393,6,0,0,0
0,1405007827,134124,-14.6581,20.8939,-5.36276,26.0801,-8.48419,-0.610908,3.83303,9.32989,2.14565,3.35855,-1.51121,45.1165,7,0,0,0
0,1405007828,135127,-14.4574,20.956,-5.33369,26.0119,-8.45558,-0.591603,3.83058,9.30162,2.3991,3.69395,-1.34706,45.211,6,0,0,0
0,1405007829,136129,-14.5144,20.9224,-5.0975,25.9692,-8.49126,-0.606844,3.79561,9.32076,2.1811,3.18222,-1.10246,45.1028,6,0,0,0
0,1405007830,137133,-14.2884,20.9124,-5.07387,25.8308,-8.45791,-0.610504,3.84088,9.3092,2.15757,3.21955,-1.4825,45.1533,6,0,0,0
0,1405007831,138142,-14.5897,20.8508,-5.43947,26.0231,-8.46641,-0.632079,3.85732,9.32515,3.30007,2.74415,-0.440293,45.2022,6,0,0,0
0,1405007832,139150,-14.8812,20.5074,-5.49942,25.9278,-8.46012,-0.608362,3.81305,9.29963,0.392952,3.61896,-0.851511,45.1715,6,0,0,0
0,1405007833,140155,-14.2373,21.069,-5.21604,25.9578,-8.46944,-0.599523,3.81185,9.30704,-0.651806,3.99539,-0.977205,45.2284,7,0,0,0
0,1405007834,141163,-14.3437,21.3806,-5.35082,26.2964,-8.45067,-0.597879,3.78959,9.28075,2.87541,2.91637,-0.331413,45.1702,6,0,0,0
0,1405007835,142175,-14.4315,21.042,-5.16018,26.0319,-8.46192,-0.585376,3.8071,9.29735,3.81907,2.91537,-0.0782928,45.0601,7,0,0,0
0,1405007836,143176,-14.5117,20.9279,-5.51489,26.0572,-8.45468,-0.613763,3.80706,9.29258,0.355437,2.69854,-0.408549,45.292,6,0,0,0
0,1405007837,144188,-14.1209,20.9896,-5.3813,25.8635,-8.44461,-0.613162,3.81925,9.28838,2.09319,2.38471,-1.00648,45.172,6,0,0,0
0,1405007838,145192,-14.1638,21.2487,-4.86623,25.9961,-8.46268,-0.594966,3.82948,9.30784,3.15797,4.29053,-0.544083,45.2084,5,0,0,0
0,1405007839,146196,-14.5002,21.1072,-5.01173,26.0938,-8.48548,-0.595009,3.82561,9.32699,2.13339,3.34694,0.543165,45.1396,6,0,0,0
0,1405007840,147203,-14.3417,20.9795,-5.60605,26.0241,-8.47497,-0.593061,3.82916,9.31876,1.25208,3.53487,-0.881887,45.2459,6,0,0,0
0,1405007841,148208,-14.5527,20.9984,-5.20691,26.0735,-8.46191,-0.603766,3.8484,9.31551,2.77394,3.90838,-1.83298,45.2449,6,0,0,0
0,1405007842,149210,-14.6207,20.693,-4.61311,25.7536,-8.48571,-0.611477,3.82365,9.32746,2.61501,2.86423,-0.935847,45.2668,6,0,0,0
0,1405007843,150211,-14.5385,21.006,-5.75977,26.1877,-8.47724,-0.637073,3.80674,9.31454,2.07553,4.40581,-0.50708,45.208,6,0,0,0
0,1405007844,151214,-14.3713,21.2536,-5.65811,26.2729,-8.45872,-0.61697,3.80841,9.29702,3.00763,3.73551,-0.501296,45.2062,6,0,0,0
0,1405007845,152220,-14.4413,20.8614,-5.34646,25.9294,-8.45541,-0.644485,3.83962,9.30871,1.65856,3.05432,-0.361865,45.1766,7,0,0,0
0,1405007846,153224,-14.5224,20.8824,-5.35527,25.9933,-8.46785,-0.589416,3.81352,9.30563,2.31228,3.14442,-1.50578,45.2294,6,0,0,0
0,1405007847,154230,-14.4032,20.9474,-5.47187,26.0036,-8.48505,-0.588542,3.81324,9.32112,1.42549,3.91096,-1.49866,45.1645,7,0,0,0
0,1405007848,155232,-14.3158,20.5693,-5.4142,25.6389,-8.47854,-0.613017,3.82938,9.32339,0.895011,4.06036,-0.634777,45.3605,7,0,0,0
0,1405007849,156243,-14.7423,20.7878,-5.39475,26.0494,-8.48308,-0.724046,3.82058,9.33187,2.53549,3.0782,-0.874987,45.3596,7,0,0,0
0,1405007850,157258,-14.5152,20.8613,-4.58117,25.8239,-8.40548,-0.386615,3.78642,9.22705,1.90223,2.70573,-0.472794,45.3724,6,0,0,0
0,1405007851,158263,-14.5115,21.1126,-5.56918,26.2172,-8.46583,-0.484044,3.76769,9.27901,1.44245,3.92574,-1.26354,45.3895,6,0,0,0
0,1405007852,159264,-14.6161,20.748,-5.33511,25.934,-8.46048,-0.232886,3.77386,9.26693,-0.364732,2.63948,-6.6046,45.4164,7,0,0,0
0,1405007853,160269,-14.4683,21.138,-5.64509,26.23,-8.52287,-0.827577,3.92525,9.41976,3.27155,1.99449,0.0258917,45.3501,6,0,0,0
0,1405007854,161272,-14.5861,20.7413,-4.87891,25.8217,-8.5371,-0.814469,3.93844,9.43699,3.04705,4.14812,0.722554,45.4075,6,0,0,0
0,1405007855,162284,-14.8399,20.8548,-5.898,26.2665,-8.4735,-0.589312,3.77349,9.29444,1.13768,2.24828,-2.02687,45.3125,7,0,0,0
0,1405007856,163290,-14.4073,21.0224,-5.27984,26.0267,-8.47028,-0.587815,3.82405,9.31207,2.47474,3.38513,-1.85625,45.3123,7,0,0,0
0,1405007857,164298,-14.4826,20.6048,-5.54768,25.7892,-8.44032,-0.387008,3.78184,9.25695,2.20196,2.7285,-0.914725,45.2253,6,0,0,0
0,1405007858,165301,-14.6898,20.5274,-5.5606,25.8473,-8.44409,-0.469075,3.74622,9.24969,2.08963,3.42215,-1.65627,45.2217,6,0,0,0
0,1405007859,166302,-14.0974,20.9983,-5.60506,25.9052,-8.45241,-0.481658,3.75491,9.26146,0.953639,3.4315,-4.07666,45.1284,7,0,0,0
0,1405007860,167304,-14.8507,20.7425,-5.36399,26.0685,-8.43162,-0.325953,3.78844,9.24936,-0.576921,3.89392,-0.943041,45.1052,5,0,0,0
0,1405007861,168313,-14.3496,20.894,-5.70324,25.9807,-8.37925,-0.332894,3.75912,9.18987,0.0661258,3.49869,-5.84743,45.1491,6,0,0,0
0,1405007862,169314,-14.428,20.7063,-5.60771,25.8527,-8.43612,-0.196767,3.7697,9.24216,-0.636298,3.6168,-4.02766,45.1165,6,0,0,0
0,1405007863,170323,-14.7333,20.7965,-5.44511,26.0617,-8.41364,-0.424607,3.81141,9.24643,2.02032,3.46809,-1.54157,45.2389,6,0,0,0
0,1405007864,171325,-14.7418,20.4593,-5.76729,25.8682,-8.47828,-0.561273,3.8365,9.32282,0.733012,3.2806,-1.52811,45.2846,7,0,0,0
0,1405007865,172335,-14.4999,21.1796,-5.8724,26.3308,-8.48926,-0.586123,3.83093,9.33205,2.97088,3.13994,-1.24021,45.2602,5,0,0,0
0,1405007866,173343,-14.757,20.6949,-5.52092,26.0101,-8.46734,-0.625761,3.8466,9.32115,0.892619,3.39805,-1.96796,45.3105,6,0,0,0
0,1405007867,174349,-15.0579,20.7554,-5.72724,26.2741,-8.4296,-0.567376,3.81499,9.27007,0.718742,3.09612,-0.150302,45.267,7,0,0,0
0,1405007868,175352,-14.6638,20.7112,-5.6922,26.0074,-8.43809,-0.595601,3.81895,9.28119,1.16943,2.26055,-0.580985,45.3242,7,0,0,0
0,1405007869,176357,-14.354,21.1745,-5.46076,26.1576,-8.47144,-0.661223,3.84182,9.32535,1.72721,4.18443,-0.167203,45.3464,7,0,0,0
0,1405007870,177371,-14.7681,21.1549,-5.65744,26.4128,-8.47924,-0.604964,3.83665,9.32649,2.21178,3.01125,-1.27721,45.3656,7,0,0,0
0,1405007871,178379,-14.7452,20.7887,-5.54696,26.0837,-8.44988,-0.589611,3.82207,9.29281,0.327751,4.28164,-0.984251,45.4236,6,0,0,0
0,1405007872,179382,-14.7054,20.8283,-5.86517,26.1623,-8.44808,-0.603507,3.81147,9.28772,2.35307,2.89175,-2.41066,45.4972,6,0,0,0
0,1405007873,180390,-14.485,20.8287,-6.02081,26.0749,-8.47843,-0.565586,3.8422,9.32556,2.22789,3.36016,-2.12908,45.4858,6,0,0,0
0,1405007874,181392,-14.7142,21.0446,-5.76226,26.317,-8.45287,-0.595984,3.84486,9.30533,2.95671,2.6196,-0.0134554,45.4639,7,0,0,0
0,1405007875,182399,-14.5002,21.0646,-5.37802,26.1322,-8.493,-0.576262,3.86668,9.34956,2.76032,4.24083,-0.417935,45.5921,6,0,0,0
0,1405007876,183405,-14.6883,20.8756,-5.70053,26.1541,-8.46323,-0.604929,3.82256,9.30613,1.40204,4.13799,-0.944316,45.4513,6,0,0,0
0,1405007877,184416,-14.4753,20.9818,-5.6979,26.1196,-8.47512,-0.581623,3.84573,9.325,2.08805,3.08103,-0.770189,45.4654,7,0,0,0
0,1405007878,185419,-14.1309,21.2239,-5.83785,26.1575,-8.4678,-0.579613,3.8314,9.31231,2.73571,3.00623,-1.12053,45.5519,6,0,0,0
0,1405007879,186421,-14.4891,21.0791,-5.93862,26.2589,-8.45233,-0.594789,3.84584,9.30517,2.05847,3.46349,-1.0301,45.5309,6,0,0,0
0,1405007880,187422,-14.2879,21.2872,-5.40576,26.2014,-8.46879,-0.590361,3.83902,9.31703,2.6197,4.25362,-1.84449,45.545,6,0,0,0
0,1405007881,188427,-14.4918,20.9345,-5.34657,26.0164,-8.45541,-0.600487,3.82439,9.29949,3.05507,3.42259,-1.69573,45.5542,6,0,0,0
0,1405007882,189434,-14.6927,20.8365,-5.74008,26.1339,-8.45819,-0.587826,3.81494,9.29733,0.13875,3.65141,-0.746772,45.4785,7,0,0,0
0,1405007883,190440,-14.9224,20.6242,-5.46299,26.0361,-8.4652,-0.583732,3.78392,9.29077,2.53754,3.22301,-0.751519,45.4411,7,0,0,0
0,1405007884,191445,-14.4425,20.9228,-5.74941,26.0655,-8.46103,-0.60135,3.81544,9.30098,1.25306,3.00638,-0.903352,45.4746,7,0,0,0
0,1405007885,192446,-14.6229,20.6121,-5.34611,25.8315,-8.46678,-0.597006,3.80944,9.30347,1.98101,3.22145,-0.832851,45.4419,6,0,0,0
0,1405007886,193455,-14.5492,20.7687,-5.70009,25.9905,-8.46451,-0.593532,3.81112,9.30187,1.48662,2.15578,-0.36922,45.4292,5,0,0,0
0,1405007887,194458,-14.8059,20.8359,-5.31006,26.1064,-8.48161,-0.591464,3.81053,9.31707,1.7459,3.66393,-1.28168,45.4266,7,0,0,0
0,1405007888,195467,-14.4065,20.5769,-5.93283,25.8099,-8.4704,-0.608912,3.80939,9.30752,2.80467,3.59694,-1.72205,45.4407,6,0,0,0
0,1405007889,196474,-14.7412,20.8258,-5.41309,26.0829,-8.48253,-0.577348,3.81379,9.31835,1.9795,3.32678,-0.673333,45.4264,6,0,0,0
0,1405007890,197479,-14.3782,20.7984,-5.80855,25.9431,-8.46279,-0.612689,3.8297,9.30918,0.836983,4.85542,-0.860322,45.4687,7,0,0,0
0,1405007891,198483,-14.6242,21.1387,-5.74176,26.3378,-8.46533,-0.59744,3.81596,9.30485,2.5656,3.92266,-1.71623,45.428,5,0,0,0
0,1405007892,199492,-14.1919,20.673,-6.21002,25.833,-8.4617,-0.613076,3.8526,9.31766,3.02485,2.81276,-0.282959,45.4484,7,0,0,0
0,1405007893,200498,-14.2722,21.0479,-5.75236,26.073,-8.4594,-0.591961,3.83281,9.30603,3.38129,4.36534,-0.262112,45.4832,7,0,0,0
0,1405007894,201511,-14.7743,20.8738,-6.08498,26.2873,-8.45236,-0.624629,3.82672,9.29926,2.00669,3.65476,-0.0759954,45.4911,7,0,0,0
0,1405007895,202514,-14.7564,20.6727,-5.86873,26.0683,-8.47674,-0.598943,3.80627,9.31137,1.25545,2.71974,-0.633834,45.489,6,0,0,0
0,1405007896,203522,-14.6554,20.9796,-5.72034,26.223,-8.47519,-0.58418,3.82618,9.31718,1.36148,3.72059,-0.661928,45.6258,6,0,0,0
0,1405007897,204524,-14.1344,21.3564,-5.77871,26.254,-8.46803,-0.591753,3.85489,9.32298,1.15029,2.94314,-1.50005,45.6203,6,0,0,0
0,1405007898,205527,-14.3133,21.1524,-5.73366,26.1757,-8.47798,-0.595494,3.83928,9.32581,0.377402,3.74405,-1.46732,45.5859,7,0,0,0
0,1405007899,206535,-15.0105,20.5411,-5.79939,26.0938,-8.44698,-0.60415,3.81086,9.28651,1.72208,3.45686,-0.750502,45.6063,7,0,0,0
0,1405007900,207547,-14.5143,21.2072,-5.6997,26.323,-8.46748,-0.614005,3.81172,9.30615,2.54709,3.2049,-0.602367,45.6325,7,0,0,0
0,1405007901,208556,-14.7375,20.7539,-6.01215,26.1546,-8.48536,-0.584399,3.80292,9.31693,3.27814,3.31382,-1.33062,45.725,5,0,0,0
0,1405007902,209564,-14.7573,20.4734,-5.82525,25.9012,-8.44954,-0.597795,3.81662,9.29079,1.62363,4.36881,-1.52721,45.4898,7,0,0,0
0,1405007903,210566,-14.7891,20.8901,-5.67223,26.2162,-8.47946,-0.640078,3.83993,9.33038,2.49092,3.57703,-0.21149,45.6794,6,0,0,0
0,1405007904,211567,-14.3836,20.9697,-5.63345,26.0452,-8.46473,-0.59723,3.83635,9.31268,1.05587,4.3356,0.621839,45.6123,6,0,0,0
0,1405007905,212571,-14.3267,21.1414,-5.43713,26.1108,-8.45693,-0.547118,3.7867,9.28214,2.72613,3.57089,-1.04531,45.6617,6,0,0,0
0,1405007906,213574,-14.6444,20.6824,-5.75771,25.9879,-8.46666,-0.588077,3.82535,9.30932,2.5097,3.84365,-2.56057,45.6406,6,0,0,0
0,1405007907,214576,-14.294,20.7671,-5.62079,25.8299,-8.47767,-0.615123,3.82394,9.3205,1.00279,3.09235,-1.12748,45.6583,6,0,0,0
0,1405007908,215577,-14.4756,20.8438,-5.53988,25.9749,-8.48184,-0.582308,3.82817,9.32393,2.40388,3.89555,0.257335,45.6355,5,0,0,0
0,1405007909,216580,-14.5426,20.7822,-5.55322,25.9659,-8.47401,-0.596915,3.81742,9.31332,1.17389,3.74104,-2.01961,45.7567,7,0,0,0
0,1405007910,217585,-14.7652,20.834,-5.53116,26.1278,-8.45225,-0.6147,3.83855,9.30338,1.36289,5.4479,-0.829527,45.6913,7,0,0,0
0,1405007911,218596,-14.6581,20.5033,-5.57579,25.8135,-8.46235,-0.597881,3.83424,9.30968,1.71208,3.75059,-0.744664,45.675,6,0,0,0
0,1405007912,219604,-14.7626,20.8329,-5.51592,26.1222,-8.4544,-0.596584,3.81168,9.2931,2.97055,2.86511,-0.575065,45.776,6,0,0,0
0,1405007913,220616,-14.3962,21.15,-6.02004,26.2833,-8.46808,-0.611616,3.82709,9.31284,1.32443,2.94614,-0.486758,45.6566,6,0,0,0
0,1405007914,221619,-14.6517,20.5895,-5.53857,25.8703,-8.45805,-0.597929,3.81705,9.29871,1.94336,3.07127,0.254637,45.6558,6,0,0,0
0,1405007915,222622,-14.5914,20.8985,-5.61829,26.1002,-8.478,-0.614889,3.83872,9.32686,3.35999,3.69334,0.230186,45.6773,7,0,0,0
0,1405007916,223625,-14.5457,20.8253,-5.59407,26.0108,-8.43606,-0.519826,3.82567,9.27756,1.98211,3.08867,-1.32025,45.7891,6,0,0,0
0,1405007917,224626,-14.477,20.5922,-5.87321,25.848,-8.46918,-0.605333,3.81544,9.30866,1.46332,3.72348,-1.76428,45.9003,8,0,0,0
0,1405007918,225628,-14.6849,20.9571,-5.46206,26.1664,-8.47205,-0.604783,3.78909,9.30047,1.56613,3.21542,-1.81515,45.8058,6,0,0,0
0,1405007919,226630,-14.4051,20.9718,-5.23989,25.9765,-8.44295,-0.571508,3.81315,9.28171,1.71272,4.2666,-0.31249,45.879,7,0,0,0
0,1405007920,227637,-14.5627,20.6214,-5.82634,25.9087,-8.48295,-0.603603,3.83789,9.33029,2.3601,4.27094,-1.02923,45.899,7,0,0,0
0,1405007921,228638,-14.8288,21.1499,-5.53219,26.4162,-8.46097,-0.609785,3.85113,9.31618,2.81386,4.34686,-1.23001,45.8322,6,0,0,0
0,1405007922,229645,-14.277,20.7391,-5.43927,25.759,-8.47173,-0.578434,3.8163,9.30962,1.00963,3.28273,-1.33147,45.8256,6,0,0,0
0,1405007923,230656,-14.6618,20.809,-5.69304,26.0844,-8.47465,-0.594763,3.83758,9.32204,2.42729,3.98113,-1.69581,45.9001,5,0,0,0
0,1405007924,231659,-14.5331,21.1037,-5.48517,26.2043,-8.46595,-0.590938,3.80923,9.30224,3.57482,3.01364,-1.43812,45.782,5,0,0,0
0,1405007925,232668,-14.4138,21.0906,-5.25651,26.0807,-8.4803,-0.608551,3.87103,9.34188,2.8527,3.23503,-0.549537,45.7124,7,0,0,0
0,1405007926,233672,-14.7907,20.8457,-5.35809,26.1154,-8.45952,-0.612522,3.81584,9.3005,2.15957,4.07421,-0.744761,45.8537,7,0,0,0
0,1405007927,234675,-14.4484,20.9521,-5.16366,25.9694,-8.46243,-0.616978,3.83209,9.31012,3.86648,3.58095,-1.41344,45.7589,7,0,0,0
0,1405007928,235685,-14.2193,21.2297,-5.23062,26.0816,-8.44942,-0.631139,3.81825,9.29356,1.04556,3.84994,-1.13144,45.9382,7,0,0,0
0,1405007929,236695,-14.5025,21.4172,-5.49248,26.4421,-8.47794,-0.617925,3.83838,9.32687,2.96835,3.43607,-1.07573,45.8074,7,0,0,0
0,1405007930,237704,-14.2786,20.9157,-5.65029,25.9475,-8.62585,-0.694597,3.81574,9.45768,0.710335,4.14017,-0.93721,45.8978,7,0,0,0
0,1405007931,238710,-14.5803,20.8514,-5.95344,26.1306,-8.4846,-0.687813,3.76251,9.30688,3.57091,5.01289,-0.640233,45.9295,5,0,0,0
0,1405007932,239716,-14.5486,20.9392,-5.48826,26.0812,-8.45801,-0.569309,3.83316,9.3035,1.57498,3.90589,-1.1948,45.8336,7,0,0,0
0,1405007933,240719,-14.3689,20.9225,-5.26368,25.9214,-8.47012,-0.629075,3.83439,9.31886,2.45647,4.95734,-1.23351,45.9206,7,0,0,0
0,1405007934,241724,-14.7394,20.8307,-5.46887,26.0975,-8.43149,-0.579579,3.81488,9.2725,1.71075,3.78595,-1.33009,45.8958,6,0,0,0
0,1405007935,242733,-14.9002,21.2296,-5.73864,26.564,-8.46038,-0.587444,3.80927,9.29697,1.64922,4.89407,-0.670074,45.9116,7,0,0,0
0,1405007936,243741,-14.7782,20.2746,-5.38927,25.6613,-8.48513,-0.63715,3.83647,9.33391,2.23574,4.37961,-1.22471,45.8416,6,0,0,0
0,1405007937,244743,-14.028,21.3402,-5.25395,26.0728,-8.43618,-0.58122,3.77584,9.26088,1.98021,3.03124,-0.958368,45.8364,7,0,0,0
0,1405007938,245744,-14.4803,20.8355,-5.31328,25.9235,-8.4762,-0.49147,3.82004,9.31022,1.73979,3.41504,-0.195336,45.7909,7,0,0,0
0,1405007939,246753,-13.9903,21.104,-5.47081,25.9044,-8.49786,-0.581257,3.81916,9.33475,1.3256,4.16423,-1.72444,45.7982,6,0,0,0
0,1405007940,247760,-14.8083,20.8414,-5.69438,26.1931,-8.42842,-0.577194,3.89928,9.30461,2.60775,2.30313,-1.54271,45.7434,7,0,0,0
0,1405007941,248767,-14.3364,20.7217,-5.66207,25.8259,-8.48673,-0.585469,3.83537,9.33153,0.86004,3.70817,-1.54309,45.7462,6,0,0,0
0,1405007942,249771,-14.4105,21.0798,-5.09564,26.0382,-8.46126,-0.606824,3.81992,9.30338,3.62632,3.9544,-0.858549,45.796,6,0,0,0
0,1405007943,250776,-14.3205,20.8289,-5.67725,25.9066,-8.46151,-0.602664,3.85392,9.31735,0.491331,4.27641,-0.68626,45.7445,8,0,0,0
0,1405007944,251779,-14.3762,21.069,-5.58673,26.1111,-8.47753,-0.600972,3.843,9.32729,3.19201,3.27471,-1.64604,45.7195,6,0,0,0
0,1405007945,252792,-14.2394,21.1692,-5.23848,26.0449,-8.46993,-0.594569,3.86593,9.32945,1.29838,4.87894,-0.630851,45.7509,6,0,0,0
0,1405007946,253795,-14.486,20.715,-6.00859,25.9818,-8.4393,-0.631813,3.84834,9.29681,1.25238,3.8507,-0.275182,45.8312,6,0,0,0
0,1405007947,254801,-14.0701,20.9159,-5.5333,25.8081,-8.44294,-0.585037,3.84379,9.29518,1.86967,3.6054,-1.11186,45.874,7,0,0,0
0,1405007948,255810,-14.2511,21.051,-5.45366,25.9996,-8.46141,-0.601831,3.85542,9.31783,0.0132559,4.51867,-0.419202,45.7999,6,0,0,0
0,1405007949,256817,-14.5979,20.6752,-5.39302,25.8776,-8.45696,-0.610637,3.82882,9.30338,1.25726,2.93682,0.203576,45.8142,6,0,0,0
0,1405007950,257823,-14.2446,20.8128,-5.13132,25.7373,-8.46086,-0.631945,3.86191,9.32201,1.89742,3.94706,-0.615971,45.7601,6,0,0,0
0,1405007951,258832,-14.4835,20.628,-5.91885,25.8905,-8.4639,-0.588847,3.81306,9.30182,1.6183,3.29309,-1.60501,45.7623,6,0,0,0
0,1405007952,259835,-14.472,20.9967,-5.60829,26.1104,-8.46767,-0.63126,3.8628,9.32852,3.00087,2.22229,-0.559219,45.8194,6,0,0,0
0,1405007953,260845,-15.071,20.3594,-5.48288,25.9173,-8.4683,-0.614434,3.8135,9.30765,1.04837,4.18208,-1.51191,45.7164,6,0,0,0
0,1405007954,261850,-14.3656,21.0076,-5.6065,26.06,-8.44307,-0.538312,3.9062,9.31846,0.477008,3.25652,-0.00985928,45.7402,6,0,0,0
0,1405007955,262853,-14.6475,20.5421,-5.51439,25.8251,-8.44137,-0.597922,3.81097,9.28104,1.51721,2.46279,0.239093,45.6707,6,0,0,0
0,1405007956,263862,-14.6847,20.4509,-5.31213,25.7313,-8.45436,-0.550073,3.83534,9.29992,2.9873,1.78877,-0.369087,45.6574,5,0,0,0
0,1405007957,264869,-14.3588,20.9369,-5.74596,26.0297,-8.46732,-0.584117,3.83082,9.31192,1.72515,1.71012,-0.665063,45.6114,7,0,0,0
0,1405007958,265879,-14.1207,20.686,-5.58803,25.6618,-8.44153,-0.594348,3.85167,9.29774,2.72942,3.24265,0.428628,45.6081,5,0,0,0
0,1405007959,266882,-14.4109,20.4621,-5.59371,25.6449,-8.456,-0.58686,3.86431,9.31565,0.473229,4.07588,-0.448393,45.509,6,0,0,0
0,1405007960,267885,-14.7461,20.3838,-5.77016,25.8116,-8.4854,-0.595046,3.83198,9.32953,0.382196,4.47595,-0.814716,45.5312,6,0,0,0
0,1405007961,268886,-14.0978,21.1418,-4.89896,25.879,-8.44827,-0.678941,3.80502,9.29044,1.32297,4.36573,-0.780644,45.5472,7,0,0,0
0,1405007962,269890,-13.8645,20.938,-5.13971,25.6328,-8.38829,-0.593021,3.85667,9.25143,3.48626,3.99739,-1.28533,45.6279,7,0,0,0
0,1405007963,270894,-14.3281,20.478,-5.25983,25.5403,-8.47498,-0.620795,3.84436,9.32683,2.36097,2.99683,-2.1759,45.5577,7,0,0,0
0,1405007964,271898,-14.3283,20.4287,-5.41672,25.5338,-8.4442,-0.635842,3.787,9.27632,1.15016,4.32339,0.102877,45.533,7,0,0,0
0,1405007965,272904,-13.8429,21.0539,-4.59393,25.6125,-8.45065,-0.610249,3.85255,9.30741,0.374551,2.32358,-0.632687,45.515,7,0,0,0
0,1405007966,273913,-13.6095,21.148,-4.85746,25.6135,-8.42336,-0.633722,3.80671,9.26529,0.557912,2.2312,-1.30427,45.552,7,0,0,0
0,1405007967,274917,-13.8845,21.0378,-5.18635,25.7346,-8.4615,-0.592734,3.84948,9.31487,3.08916,3.99077,-1.06851,45.6604,7,0,0,0
0,1405007968,275926,-13.606,21.1434,-5.18591,25.6721,-8.44917,-0.5835,3.8076,9.28584,3.0329,3.11362,-1.66552,45.5587,7,0,0,0
0,1405007969,276935,-14.1427,21.0366,-5.25985,25.8887,-8.47803,-0.594196,3.79229,9.30654,2.71627,3.46203,-1.9903,45.6024,7,0,0,0
0,1405007970,277937,-14.6811,20.6111,-4.5051,25.7031,-8.45803,-0.555083,3.78906,9.28458,3.44043,4.2501,-2.01918,45.5873,7,0,0,0
0,1405007971,278942,-14.1585,20.8673,-4.77541,25.6654,-8.50328,-0.622289,3.85121,9.35548,2.80232,3.49278,-0.926838,45.5754,7,0,0,0
0,1405007972,279947,-13.9511,21.2129,-5.27648,25.9318,-8.47539,-0.58553,3.80183,9.30747,2.21653,3.9486,-0.288309,45.5826,6,0,0,0
0,1405007973,280948,-13.9259,21.1226,-5.18884,25.8267,-8.45653,-0.643448,3.85665,9.31669,2.86991,3.60377,-0.494256,45.6712,5,0,0,0
0,1405007974,281956,-14.126,20.9343,-5.24792,25.794,-8.48015,-0.62859,3.84677,9.33304,3.00938,4.73334,-1.76742,45.6207,7,0,0,0
0,1405007975,282964,-14.096,21.2596,-5.51428,26.0974,-8.46093,-0.586382,3.81053,9.29792,0.48024,3.21964,-2.71385,45.6481,6,0,0,0
0,1405007976,283966,-14.4644,20.846,-5.29555,25.9195,-8.47488,-0.617451,3.83337,9.32199,3.73338,3.67364,-0.480514,45.6569,7,0,0,0
0,1405007977,284971,-14.2307,20.757,-5.11289,25.6809,-8.45579,-0.601059,3.82758,9.30118,2.36247,4.22199,-1.46988,45.6976,8,0,0,0
0,1405007978,285976,-13.751,21.259,-5.35132,25.878,-8.45929,-0.648225,3.85616,9.31932,0.864046,3.59887,-2.23722,45.7927,7,0,0,0
0,1405007979,286977,-14.0595,21.0051,-5.40127,25.8468,-8.47815,-0.55704,3.86408,9.33383,0.445621,4.94746,-1.27922,45.7319,6,0,0,0
0,1405007980,287985,-14.2824,20.6991,-5.36954,25.7152,-8.44023,-0.611726,3.82709,9.28753,1.01766,2.86191,-2.24324,45.7273,5,0,0,0
0,1405007981,288992,-14.4303,20.7956,-5.14351,25.8291,-8.4651,-0.618171,3.80671,9.3022,1.93618,3.92811,-0.467634,45.8781,7,0,0,0
0,1405007982,289999,-14.4719,20.3518,-5.27193,25.523,-8.4709,-0.615163,3.79782,9.30365,1.67315,4.43148,-1.51815,45.7672,6,0,0,0
0,1405007984,291003,-14.5649,20.7907,-5.42318,25.9577,-8.4169,-0.575924,3.8135,9.25844,1.49548,3.475,-0.953109,45.8722,6,0,0,0
0,1405007985,292007,-14.2295,20.5132,-5.38517,25.5396,-8.48549,-0.609827,3.834,9.33139,2.885,4.75462,-0.254719,45.7208,6,0,0,0
0,1405007986,293010,-14.1899,20.8952,-5.004,25.7488,-8.46145,-0.615054,3.85949,9.32041,0.679187,3.78914,-0.500701,45.8506,5,0,0,0
0,1405007987,294019,-14.1484,20.9509,-5.19238,25.8085,-8.46448,-0.621502,3.84581,9.31794,3.96874,3.12139,-0.706478,45.8621,7,0,0,0
0,1405007988,295020,-14.3016,20.9873,-5.17411,25.9187,-8.45601,-0.604961,3.80437,9.29211,0.567244,3.01466,-0.908797,45.7971,6,0,0,0
0,1405007989,296028,-14.1935,20.7674,-4.83235,25.6143,-8.45526,-0.590737,3.8041,9.29041,1.85229,3.52056,-1.78313,45.8022,7,0,0,0
0,1405007990,297029,-14.4195,20.5634,-4.97748,25.6037,-8.45056,-0.597186,3.81595,9.2914,1.63251,4.6469,-1.06117,45.8395,7,0,0,0
0,1405007991,298038,-14.2089,21.043,-4.99523,25.8777,-8.43991,-0.588233,3.82478,9.28478,2.67257,2.93857,-0.636879,45.8658,6,0,0,0
0,1405007992,299039,-14.2306,21.1172,-5.05388,25.9613,-8.46729,-0.582704,3.85684,9.32254,1.72791,2.66636,-0.560656,45.7258,6,0,0,0
0,1405007993,300048,-15.3187,20.7979,-5.79992,26.4736,-8.45795,-0.639779,3.82092,9.30299,1.37758,3.94019,-0.940141,45.7412,6,0,0,0
0,1405007994,301051,-16.5371,20.3105,-7.16732,27.1544,-8.46886,-0.637535,3.83772,9.31967,3.80359,3.13891,-1.34328,45.7228,6,0,0,0
0,1405007995,302065,-16.4591,20.2739,-6.61149,26.9378,-8.47124,-0.608757,3.80147,9.30503,2.83111,4.19836,-1.805,45.8886,7,0,0,0
0,1405007996,303068,-16.554,19.8645,-6.86779,26.7544,-8.49282,-0.58304,3.81962,9.33046,2.56356,3.96181,-0.869082,45.9265,6,0,0,0
0,1405007997,304071,-16.7112,20.2247,-7.17054,27.1978,-8.45611,-0.595848,3.81493,9.29594,1.80529,4.75681,-1.05654,45.8762,7,0,0,0
0,1405007998,305079,-16.6186,19.6327,-7.40629,26.7671,-8.48743,-0.603939,3.79279,9.31593,3.455,4.07426,-0.850979,45.8689,6,0,0,0
0,1405007999,306093,-16.8993,19.8023,-7.53353,27.1012,-8.47751,-0.599401,3.78542,9.30359,2.57688,4.17033,-0.0601544,45.9251,7,0,0,0
0,1405008000,307095,-16.1673,20.3125,-6.85388,26.8506,-8.46491,-0.588022,3.79928,9.29705,2.44143,3.78034,-0.610309,45.87,7,0,0,0
0,1405008001,308097,-16.572,20.0581,-7.22999,27.0043,-8.44044,-0.587142,3.78194,9.26762,0.116806,3.971,-0.76186,45.8529,6,0,0,0
0,1405008002,309104,-15.8494,20.566,-7.00735,26.8937,-8.46959,-0.608879,3.80678,9.30571,1.32965,3.75941,-1.87431,45.9369,5,0,0,0
0,1405008003,310112,-16.4577,19.8621,-7.59039,26.8882,-8.47163,-0.604,3.79802,9.30367,2.79417,4.31405,-1.11116,45.7587,5,0,0,0
0,1405008004,311114,-16.6126,20.256,-7.24495,27.1804,-8.4625,-0.601982,3.81653,9.30281,1.65757,4.18973,-1.20147,45.7586,7,0,0,0
0,1405008005,312129,-16.5255,19.9329,-6.86493,26.7869,-8.47266,-0.602307,3.82257,9.31455,2.11669,3.98708,-2.22789,45.7986,5,0,0,0
0,1405008006,313134,-17.3042,19.9123,-8.07861,27.5898,-8.4564,-0.611123,3.81395,9.29679,0.682783,4.51889,-0.815811,45.7188,6,0,0,0
0,1405008007,314140,-17.5725,20.3949,-7.98965,28.0817,-8.48011,-0.586961,3.80612,9.31361,1.50746,3.84757,0.372409,45.7859,7,0,0,0
0,1405008008,315150,-17.2063,20.5209,-7.65402,27.8522,-8.47333,-0.61503,3.84497,9.3252,2.94889,4.47835,-0.681452,45.7691,6,0,0,0
0,1405008009,316152,-17.5533,20.002,-8.28057,27.8705,-8.47225,-0.618626,3.8099,9.31005,1.42827,3.81454,-1.17207,45.6721,7,0,0,0
0,1405008010,317153,-17.9373,19.757,-8.15255,27.9025,-8.45877,-0.609026,3.84747,9.31261,1.43111,2.89443,-1.57652,45.8144,7,0,0,0
0,1405008011,318158,-17.5285,20.0551,-8.38979,27.9257,-8.43816,-0.605672,3.80544,9.27635,3.75431,3.94808,-0.501052,45.7065,7,0,0,0
0,1405008012,319160,-17.567,20.0747,-8.25461,27.9236,-8.45996,-0.60399,3.81008,9.29798,3.28345,2.11206,-1.20362,45.7963,7,0,0,0
0,1405008013,320167,-17.758,19.9445,-8.06938,27.897,-8.45542,-0.609379,3.81097,9.29457,2.33901,4.25876,-1.80228,45.8996,7,0,0,0
0,1405008014,321172,-17.6504,19.7135,-8.39631,27.7607,-8.45638,-0.572618,3.84772,9.30824,2.00968,4.06453,-1.12023,45.7379,6,0,0,0
0,1405008015,322175,-17.7533,20.1846,-7.94867,28.0317,-8.47703,-0.593808,3.80049,9.30894,3.73491,4.20534,-0.0725093,45.9107,7,0,0,0
0,1405008016,323176,-17.6668,19.9642,-7.82853,27.7844,-8.47633,-0.598275,3.81785,9.31569,1.77455,4.3281,-1.52709,45.9051,6,0,0,0
0,1405008017,324178,-17.5246,20.6096,-7.99907,28.2109,-8.48498,-0.600103,3.82117,9.32504,2.5771,2.27315,-1.8008,45.8761,7,0,0,0
0,1405008018,325184,-17.392,20.0305,-7.81604,27.6548,-8.46176,-0.591456,3.82399,9.30452,0.661981,4.12872,-1.53228,45.8879,5,0,0,0
0,1405008019,326185,-17.7945,20.0499,-7.94496,27.96,-8.45387,-0.615581,3.83303,9.30263,2.24229,3.16048,-0.0268857,46.0318,6,0,0,0
0,1405008020,327188,-17.512,20.3279,-7.91185,27.9731,-8.46698,-0.615744,3.85087,9.32192,1.62777,2.81183,-1.71281,46.0042,7,0,0,0
0,1405008021,328197,-17.617,19.7528,-7.86259,27.6107,-8.47181,-0.604991,3.81885,9.31242,1.19553,2.98025,-0.827475,46.0062,6,0,0,0
0,1405008022,329200,-17.8306,20.3126,-8.07285,28.2082,-8.46925,-0.617153,3.83701,9.31835,2.00992,4.52226,-0.603881,46.0135,7,0,0,0
0,1405008023,330213,-18.0657,19.651,-8.07783,27.8888,-8.43542,-0.611324,3.8253,9.2824,0.982256,2.90474,-1.42205,46.0277,7,0,0,0
0,1405008024,331217,-17.5118,20.105,-7.54787,27.71,-8.47412,-0.593754,3.84203,9.32332,1.21544,4.37896,0.172177,45.9595,7,0,0,0
0,1405008025,332224,-17.5676,20.0896,-8.17351,27.9109,-8.46062,-0.60136,3.84659,9.31343,0.803064,4.03216,0.629465,45.9563,7,0,0,0
0,1405008026,333232,-17.6577,20.5305,-7.86391,28.1981,-8.45822,-0.6228,3.79829,9.29282,3.43638,2.44378,-1.7005,45.9339,7,0,0,0
0,1405008027,334237,-18.0472,19.5732,-7.6526,27.7015,-8.46231,-0.601893,3.82004,9.30407,1.68731,4.58911,-1.35673,45.9449,10,0,0,0
0,1405008028,335242,-17.9448,19.9165,-8.40714,28.0956,-8.45022,-0.617255,3.83059,9.29842,1.4894,3.15556,-1.41815,45.9439,10,0,0,0
0,1405008029,336243,-17.9339,19.8196,-7.84152,27.8555,-8.4786,-0.579354,3.8102,9.31343,1.81775,3.91057,-0.584034,45.8806,10,0,0,0
0,1405008030,337245,-17.1931,20.3619,-8.14788,27.8675,-8.46198,-0.607925,3.83723,9.31123,2.68803,4.02679,-1.35742,45.8985,11,0,0,0
0,1405008031,338250,-17.8631,19.7057,-7.94219,27.7576,-8.42479,-0.567332,3.8571,9.28312,2.30948,2.77587,-1.56121,45.9013,10,0,0,0
0,1405008032,339255,-17.8058,20.1826,-8.07497,28.0996,-8.43429,-0.604304,3.82352,9.28017,3.47724,2.89917,-0.784447,45.8545,10,0,0,0
0,1405008033,340256,-17.5271,20.909,-8.2405,28.5007,-8.44394,-0.608552,3.83076,9.29221,1.3606,3.25591,-0.731481,45.9398,11,0,0,0
0,1405008034,341261,-17.7497,20.1072,-8.09812,28.0166,-8.44577,-0.588149,3.85966,9.30451,2.14116,3.22359,-1.60942,46.0011,10,0,0,0
0,1405008035,342262,-17.617,20.1971,-8.18192,28.0219,-8.47189,-0.582822,3.82415,9.31325,1.24599,3.80524,-1.02356,45.8101,11,0,0,0
0,1405008036,343264,-17.6393,19.914,-8.15726,27.8254,-8.45399,-0.578595,3.77798,9.27781,2.35567,3.53791,-0.131774,46.0029,10,0,0,0
0,1405008037,344266,-17.9632,20.0181,-7.65667,27.9647,-8.45828,-0.603323,3.79576,9.29055,1.28879,3.7881,-1.68926,45.9418,11,0,0,0
0,1405008038,345268,-17.5881,20.1301,-8.15566,27.9478,-8.46414,-0.609494,3.79705,9.29681,2.55576,3.06963,-1.37867,45.8771,11,0,0,0
0,1405008039,346272,-17.658,19.9885,-7.93547,27.8266,-8.46036,-0.614287,3.84066,9.31159,2.37243,3.13825,-1.22827,46.0873,9,0,0,0
0,1405008040,347282,-17.6906,20.332,-8.03344,28.1226,-8.46179,-0.582342,3.8226,9.3034,1.75741,3.55278,-1.78469,45.9423,11,0,0,0
0,1405008041,348284,-18.0895,20.056,-8.13154,28.2063,-8.4484,-0.601577,3.8415,9.30024,2.27426,3.20978,-0.450719,45.8649,12,0,0,0
0,1405008042,349289,-17.47,20.6871,-7.903,28.2067,-8.4513,-0.590475,3.86586,9.31225,2.37949,2.33879,-1.33083,45.8494,11,0,0,0
0,1405008043,350293,-17.7496,19.8883,-8.19375,27.8878,-8.46877,-0.593126,3.82172,9.31007,2.39784,4.29868,-1.71064,45.8675,11,0,0,0
0,1405008044,351298,-17.5223,20.069,-7.99676,27.8162,-8.46638,-0.633942,3.81972,9.30977,2.45228,3.44456,-2.15341,46.006,11,0,0,0
0,1405008045,352304,-17.3799,20.1949,-8.02456,27.8261,-8.46752,-0.592421,3.8446,9.3183,1.46408,5.07974,-1.23702,45.9968,11,0,0,0
0,1405008046,353306,-18.1167,19.77,-7.25941,27.7807,-8.47435,-0.59145,3.83232,9.3194,2.38236,3.98737,-1.09938,46.0895,10,0,0,0
0,1405008047,354307,-17.3863,20.1496,-8.17399,27.8407,-8.49939,-0.590222,3.84966,9.34922,1.43366,3.14068,-0.196873,46.0283,10,0,0,0
0,1405008048,355309,-17.9014,19.9612,-8.00302,27.9814,-8.46219,-0.605954,3.85637,9.3192,2.37272,2.43785,-2.08478,46.047,9,0,0,0
0,1405008049,356311,-17.7912,19.9893,-8.25312,28.0038,-8.4638,-0.598927,3.81069,9.3014,2.37255,3.62236,-0.397594,46.0943,8,0,0,0
0,1405008050,357316,-17.9281,19.9919,-7.53356,27.8899,-8.44496,-0.593727,3.83377,9.29342,2.06826,2.63188,-1.03845,46.0605,10,0,0,0
0,1405008051,358322,-17.9106,19.6397,-8.20353,27.8173,-8.46109,-0.548613,3.82362,9.30114,2.24896,4.07346,-0.320041,46.0219,10,0,0,0
0,1405008052,359328,-17.8536,19.7616,-8.28147,27.8901,-8.47593,-0.624853,3.84318,9.32748,2.35571,4.25082,-1.60486,46.1506,10,0,0,0
0,1405008053,360330,-17.5011,20.1753,-8.26005,27.9563,-8.46562,-0.602037,3.81213,9.30384,2.13882,2.75759,-0.25356,45.9473,11,0,0,0
0,1405008054,361335,-17.5061,19.9706,-8.26577,27.8139,-8.45949,-0.610732,3.81484,9.29994,2.61175,3.24283,-1.20173,46.0188,11,0,0,0
0,1405008055,362340,-17.7588,19.7252,-7.9356,27.7025,-8.45174,-0.630961,3.85502,9.31081,2.96688,3.69828,0.0124142,46.0433,10,0,0,0
0,1405008056,363344,-17.8567,19.9396,-7.97414,27.9292,-8.48248,-0.595231,3.8372,9.32903,2.45027,4.05332,0.334895,46.0045,11,0,0,0
0,1405008057,364348,-17.5285,20.1203,-7.90162,27.83,-8.44323,-0.59171,3.79511,9.27584,2.36995,3.34133,-2.10603,45.9567,10,0,0,0
0,1405008058,365349,-17.8445,19.9668,-8.54949,28.1103,-8.46957,-0.642525,3.81649,9.31193,2.06466,4.86786,-0.0571821,45.9628,10,0,0,0
0,1405008059,366351,-17.667,20.1211,-8.29962,28.0333,-8.47595,-0.590886,3.80774,9.31074,2.60004,3.42303,-1.35724,46.0571,11,0,0,0
0,1405008060,367352,-18.1017,19.841,-7.96038,28.0126,-8.46424,-0.607253,3.84227,9.31532,1.22833,4.5403,-2.19447,45.9573,11,0,0,0
0,1405008061,368354,-17.7612,20.0271,-8.52406,28.0928,-8.4529,-0.591699,3.81996,9.29483,1.92296,3.47575,-1.05819,46.0341,10,0,0,0
0,1405008062,369359,-17.7253,20.2515,-8.40202,28.1941,-8.46008,-0.610641,3.83311,9.30798,2.48525,2.74279,-1.40112,46.0199,10,0,0,0
0,1405008063,370365,-17.9109,20.2672,-7.98978,28.2027,-8.43738,-0.586117,3.82572,9.28273,0.832591,3.41,-0.424246,45.9726,10,0,0,0
0,1405008064,371370,-18.0113,20.1768,-8.38026,28.3149,-8.44088,-0.578436,3.80005,9.27488,2.69787,3.56391,-0.330925,45.8735,10,0,0,0
0,1405008065,372428,-17.659,20.2985,-8.26806,28.1465,-8.47979,-0.620346,3.8538,9.33506,2.64448,3.49859,-1.18569,45.807,6,0,0,0
0,1405008066,373437,-18.2788,19.727,-8.74674,28.2803,-8.46766,-0.603657,3.82643,9.31167,1.82733,4.13821,-1.48914,45.7714,11,0,0,0
0,1405008067,374443,-17.9529,19.7011,-8.29034,27.9136,-8.48882,-0.575362,3.85627,9.34141,2.5055,3.86899,-0.31914,46.0079,11,0,0,0
0,1405008068,375450,-18.2276,19.6919,-8.11801,28.0342,-8.46867,-0.597056,3.79021,9.29734,2.74708,3.93473,-0.797919,46.0293,11,0,0,0
0,1405008069,376451,-17.6806,20.6001,-8.33748,28.3986,-8.44868,-0.619953,3.8187,9.29231,1.99678,3.35727,-1.01601,45.9504,11,0,0,0
0,1405008070,377454,-17.5531,20.4547,-8.14516,28.1576,-8.46132,-0.599296,3.83939,9.31097,2.02732,4.024,-1.18581,45.8788,10,0,0,0
0,1405008071,378455,-18.3046,19.6781,-7.89676,28.0115,-8.45844,-0.634331,3.81578,9.30096,2.06848,3.61151,-0.309626,45.9323,11,0,0,0
0,1405008072,379458,-17.5114,19.946,-7.89392,27.6912,-8.46735,-0.586825,3.828,9.31096,2.15724,4.34859,-0.816813,46.0034,11,0,0,0
0,1405008073,380460,-17.5842,20.4706,-7.90354,28.1197,-8.4739,-0.613317,3.80649,9.3098,3.62861,3.16355,-0.776064,45.9709,10,0,0,0
0,1405008074,381462,-17.6215,20.1634,-8.31643,28.04,-8.45465,-0.612006,3.86578,9.31664,2.00186,4.11472,-1.66182,46.0089,11,0,0,0
0,1405008075,382468,-18.2669,20.0421,-7.40061,28.1093,-8.47528,-0.580709,3.81615,9.31292,2.5995,3.47881,-1.03486,45.9436,11,0,0,0
0,1405008076,383473,-17.8971,20.0654,-8.50742,28.2011,-8.47394,-0.61475,3.81345,9.31279,1.95526,3.62646,-0.0182238,45.8956,9,0,0,0
0,1405008077,384477,-17.8418,20.0425,-7.99258,27.9985,-8.46687,-0.609569,3.84667,9.31967,2.45896,4.38556,-1.3862,45.997,10,0,0,0
0,1405008078,385482,-18.1332,19.9858,-8.46147,28.2815,-8.46543,-0.601926,3.79088,9.29498,2.90688,3.74788,-0.47139,45.8131,11,0,0,0
0,1405008079,386489,-18.2023,20.02,-8.70391,28.4233,-8.47342,-0.621898,3.83332,9.32095,1.85764,4.10286,-0.763896,45.6844,12,0,0,0
0,1405008080,387490,-17.9937,19.6995,-8.36907,27.9622,-8.45733,-0.583006,3.79447,9.28786,2.66384,3.85387,-1.59911,45.6974,5,0,0,0
0,1405008081,388497,-17.9382,19.9091,-8.4878,28.1104,-8.46639,-0.599256,3.83965,9.31568,3.7944,4.33107,-1.7391,45.7245,8,0,0,0
0,1405008082,389502,-18.074,20.0092,-8.1785,28.1766,-8.45971,-0.605168,3.81221,9.2987,2.21333,2.93857,-2.09428,45.6947,7,0,0,0
0,1405008083,390510,-17.6975,20.5433,-8.1746,28.3206,-8.46015,-0.618425,3.836,9.30975,1.57532,2.51103,-0.963097,45.7643,6,0,0,0
0,1405008084,391523,-18.2253,19.832,-8.72228,28.3116,-8.47851,-0.60033,3.80339,9.31189,0.675883,4.15356,-0.658554,45.6103,7,0,0,0
0,1405008085,392532,-17.5511,20.1872,-8.0763,27.9426,-8.48255,-0.627163,3.812,9.32085,1.78749,2.60336,-2.16027,45.6374,7,0,0,0
0,1405008086,393535,-18.1188,20.1778,-8.01918,28.2797,-8.48208,-0.607731,3.83875,9.33012,1.86086,3.8396,-1.26043,45.6809,6,0,0,0
0,1405008087,394544,-17.6775,20.0457,-8.26934,27.9769,-8.45338,-0.606321,3.85401,9.31024,1.60034,3.92452,-0.884613,45.6705,7,0,0,0
0,1405008088,395553,-18.2404,19.8381,-8.36368,28.2172,-8.45715,-0.614315,3.78094,9.28419,0.246874,5.92348,-0.67844,45.7442,7,0,0,0
0,1405008089,396557,-17.7513,20.3841,-8.1747,28.239,-8.4463,-0.622222,3.7959,9.28095,2.25615,2.83128,-1.08212,45.6748,5,0,0,0
0,1405008090,397564,-17.585,20.2408,-8.40446,28.0991,-8.44349,-0.615386,3.78741,9.27447,1.41242,3.58399,-0.663101,45.6467,5,0,0,0
0,1405008091,398570,-18.0409,19.9722,-8.27689,28.158,-8.46017,-0.597488,3.79278,9.29068,2.50882,2.79152,-0.902132,45.7226,7,0,0,0
0,1405008092,399578,-17.9465,19.9822,-8.15,28.0675,-8.45359,-0.621415,3.81235,9.29426,1.23677,4.00664,-0.741534,45.7477,5,0,0,0
0,1405008093,400583,-17.4439,20.283,-8.06808,27.9426,-8.46652,-0.594741,3.84515,9.31777,1.30563,4.16013,-0.949744,45.8692,7,0,0,0
0,1405008094,401587,-17.9625,19.9621,-8.22664,28.0858,-8.45969,-0.603169,3.80445,9.29537,2.71764,3.69821,-1.90627,45.8648,7,0,0,0
0,1405008095,402595,-17.5144,20.2724,-8.13274,27.9976,-8.44963,-0.606786,3.83631,9.29956,0.094977,3.74748,-0.830506,45.8522,6,0,0,0
0,1405008096,403598,-17.9616,20.0321,-8.20897,28.1299,-8.4589,-0.61564,3.79524,9.29171,1.60882,3.80584,-1.45605,45.6933,7,0,0,0
0,1405008097,404602,-17.9526,19.6348,-8.34698,27.8836,-8.47074,-0.606989,3.8459,9.3227,1.62261,4.36275,-1.10536,45.8145,6,0,0,0
0,1405008098,405609,-17.7397,20.5944,-8.50327,28.4804,-8.46051,-0.613541,3.83401,9.30893,2.55116,3.19616,-1.06705,45.8103,7,0,0,0
0,1405008099,406614,-17.7779,19.9934,-8.35278,28.0278,-8.47447,-0.599948,3.83098,9.31949,0.789638,3.65363,-0.85379,45.8769,6,0,0,0
0,1405008100,407621,-17.9736,20.0072,-8.36173,28.1648,-8.4667,-0.614488,3.84351,9.31854,1.06199,2.80611,-2.68527,45.7761,6,0,0,0
0,1405008101,408628,-17.4405,20.3475,-7.69262,27.8814,-8.47901,-0.613893,3.81745,9.31898,2.35102,3.53733,-0.852248,45.7712,6,0,0,0
0,1405008102,409636,-18.0417,19.7144,-8.71113,28.1077,-8.47198,-0.5736,3.82986,9.31511,1.00322,3.65495,-0.546181,45.781,5,0,0,0
0,1405008103,410640,-17.6551,19.9604,-8.5533,27.9871,-8.45871,-0.617789,3.83717,9.30888,2.28826,2.37244,-1.65607,45.7273,6,0,0,0
0,1405008104,411645,-17.6894,20.3903,-8.11234,28.1867,-8.46409,-0.610448,3.81817,9.30548,1.27979,2.83168,-1.78089,45.7116,6,0,0,0
0,1405008105,412656,-18.077,19.557,-8.4016,27.9257,-8.44724,-0.604427,3.84657,9.30146,1.9686,3.87864,-0.902287,45.6625,6,0,0,0
0,1405008106,413658,-17.5206,20.2256,-8.48996,28.0736,-8.44754,-0.618859,3.83181,9.29659,1.80914,3.8532,-0.623802,45.8205,4,0,0,0
0,1405008107,414662,-17.6147,20.5812,-8.16802,28.2945,-8.46589,-0.597432,3.85682,9.3222,1.64286,3.45876,-2.09069,45.6515,6,0,0,0
0,1405008108,415674,-17.6679,20.0999,-7.84554,27.8875,-8.46823,-0.611213,3.8257,9.31238,2.47767,4.32016,0.0840289,45.6283,7,0,0,0
0,1405008109,416679,-17.6527,20.1789,-8.13595,28.0179,-8.44309,-0.626706,3.81943,9.28798,1.7596,3.30857,-1.22617,45.6763,6,0,0,0
0,1405008110,417709,-17.9021,20.3466,-8.30052,28.3438,-8.46891,-0.614311,3.81393,9.30838,1.65093,3.60019,-0.64827,45.7464,6,0,0,0
0,1405008111,418710,-17.6528,20.2182,-8.06604,28.0261,-8.4625,-0.6111,3.83901,9.31264,2.01951,2.80324,-0.0795089,45.7415,7,0,0,0
0,1405008112,419718,-17.7013,20.3233,-8.36157,28.2186,-8.44228,-0.597741,3.85544,9.30021,0.940507,4.12074,-0.809065,45.7573,7,0,0,0
0,1405008113,420725,-17.9037,19.8247,-8.14263,27.926,-8.44531,-0.602295,3.83762,9.29588,3.61572,3.24655,-0.797852,45.7175,8,0,0,0
0,1405008114,421730,-18.208,19.6354,-8.55028,28.1103,-8.47096,-0.609652,3.83644,9.31918,3.22464,3.68202,-0.653677,45.8451,6,0,0,0
0,1405008115,422737,-17.6466,19.9784,-8.28288,27.9131,-8.47069,-0.608758,3.78451,9.29762,2.57763,4.32203,-1.07243,45.7199,6,0,0,0
0,1405008116,423745,-18.0841,19.9124,-8.11783,28.097,-8.47801,-0.609986,3.81137,9.31533,1.88321,3.91802,-0.956548,45.765,6,0,0,0
0,1405008117,424750,-17.5765,20.3,-8.21412,28.0802,-8.4608,-0.624515,3.82801,9.30746,0.0227718,3.39024,-0.81558,45.8488,6,0,0,0
0,1405008118,425755,-17.836,19.844,-8.15769,27.9008,-8.44911,-0.602658,3.78622,9.27826,0.0678431,3.04174,-0.30786,45.6849,7,0,0,0
0,1405008119,426758,-17.3973,20.4176,-8.07491,28.0134,-8.45913,-0.604605,3.83081,9.30578,2.97322,3.42142,-0.789633,45.7334,6,0,0,0
0,1405008120,427763,-17.9154,19.8891,-8.76737,28.1674,-8.45922,-0.593485,3.81364,9.29809,1.89629,3.86737,-0.905686,45.6909,7,0,0,0
0,1405008121,428781,-17.8869,19.9146,-8.28358,28.0205,-8.47878,-0.605286,3.83623,9.32592,2.61591,2.86403,0.196917,45.6981,6,0,0,0
0,1405008122,429791,-18.1019,19.9183,-8.49916,28.2251,-8.46057,-0.603525,3.82382,9.30414,0.484445,4.12376,-0.652285,45.6272,7,0,0,0
0,1405008123,430794,-17.2625,20.7062,-8.23459,28.1878,-8.47427,-0.588469,3.82999,9.31818,1.26261,3.77429,-1.19493,45.6264,7,0,0,0
0,1405008124,431796,-18.0065,20.0573,-8.47867,28.2563,-8.46306,-0.573156,3.8208,9.30325,1.10083,3.31368,-1.06705,45.6736,6,0,0,0
0,1405008125,432801,-17.7192,20.0676,-8.48279,28.0826,-8.4454,-0.566404,3.85835,9.30228,2.41009,3.42503,-1.68192,45.6924,7,0,0,0
0,1405008126,433803,-17.9074,20.1047,-7.79994,28.0306,-8.45069,-0.587547,3.84873,9.30441,1.95733,3.23525,-0.458463,45.7497,5,0,0,0
0,1405008127,434804,-18.214,19.7162,-8.2624,28.0846,-8.45988,-0.596208,3.81791,9.30061,1.15552,3.02756,-0.778389,45.6436,6,0,0,0
0,1405008128,435807,-17.7184,20.21,-7.65066,27.9449,-8.4501,-0.59539,3.84356,9.30223,3.59253,3.69728,-1.57696,45.856,7,0,0,0
0,1405008129,436813,-17.8423,20.2205,-8.09421,28.1556,-8.4454,-0.581982,3.81976,9.28731,1.57412,4.83464,-0.246032,45.8678,5,0,0,0
0,1405008130,437819,-17.6246,20.1918,-7.61454,27.8624,-8.42006,-0.587058,3.83109,9.26927,2.05555,3.44189,-1.62365,45.8203,6,0,0,0
0,1405008131,438821,-17.8824,19.7269,-8.42694,27.9275,-8.48224,-0.613185,3.81515,9.32093,3.07542,4.0399,-0.428139,45.9333,5,0,0,0
0,1405008132,439836,-17.8642,19.8696,-8.40319,28.0097,-8.47323,-0.554639,3.81257,9.30801,2.22535,3.70255,-1.30547,45.7619,3,0,0,0
0,1405008133,440842,-17.4282,20.0456,-8.46973,27.8801,-8.47949,-0.579241,3.83117,9.32283,1.78019,4.38199,-1.82338,45.7258,6,0,0,0
0,1405008134,441847,-17.6832,20.2832,-8.65597,28.2671,-8.47619,-0.572215,3.76935,9.29415,0.346372,3.34693,-0.891499,45.7095,7,0,0,0
0,1405008135,442858,-17.2952,20.3279,-8.48225,28.0053,-8.47921,-0.570864,3.82523,9.31961,2.98071,4.26132,-1.07451,45.821,7,0,0,0
0,1405008136,443867,-17.4911,20.3465,-8.33881,28.0973,-8.47408,-0.577603,3.82013,9.31327,0.730822,3.33385,-0.864485,45.7981,7,0,0,0
0,1405008137,444873,-18.0396,19.7346,-8.62713,28.0947,-8.46173,-0.55527,3.82768,9.30378,4.1908,2.53678,-1.99224,45.7636,7,0,0,0
0,1405008138,445877,-17.186,20.3311,-8.1078,27.8289,-8.47329,-0.571956,3.79548,9.30212,1.58144,2.87962,-0.140888,45.8371,6,0,0,0
0,1405008139,446878,-17.6466,20.179,-8.24381,28.0456,-8.47663,-0.585468,3.82187,9.31679,0.674832,3.52345,-0.717705,45.7582,6,0,0,0
0,1405008140,447886,-17.5249,20.7283,-8.30302,28.3853,-8.47275,-0.60092,3.79042,9.30139,2.72318,4.9957,-0.265814,45.7649,6,0,0,0
0,1405008141,448892,-17.4318,20.4496,-8.10286,28.0662,-8.44396,-0.592617,3.78808,9.27368,1.27539,2.95884,-0.832616,45.7395,6,0,0,0
0,1405008142,449897,-18.1195,19.7415,-8.73833,28.1852,-8.46066,-0.591361,3.81682,9.30057,1.89339,3.71129,-0.359948,45.7886,6,0,0,0
0,1405008143,450903,-17.6867,19.9887,-8.07361,27.8847,-8.48042,-0.596411,3.78882,9.30743,3.09385,4.31092,-0.363813,45.8648,5,0,0,0
0,1405008144,451911,-17.47,20.1065,-8.58788,27.9861,-8.4786,-0.593793,3.83263,9.32353,1.50224,3.491,-0.817847,45.9325,6,0,0,0
0,1405008145,452916,-17.6176,20.4165,-8.98088,28.4231,-8.47134,-0.59788,3.81645,9.31055,1.1086,4.15127,-1.87868,45.8856,6,0,0,0
0,1405008146,453926,-17.8023,20.3101,-7.68967,28.0812,-8.46974,-0.584002,3.84853,9.32141,3.45413,3.47189,-1.41494,45.8544,6,0,0,0
0,1405008147,454958,-17.9501,19.8345,-8.61546,28.104,-8.46217,-0.604572,3.83454,9.31008,2.17594,4.24841,-1.64111,45.9492,6,0,0,0
0,1405008148,455961,-17.5112,20.3278,-8.20582,28.057,-8.49544,-0.592479,3.83065,9.33795,2.20238,4.19952,-1.48678,45.928,6,0,0,0
0,1405008149,456974,-17.6465,20.4055,-8.10151,28.1676,-8.45605,-0.589241,3.82068,9.29783,3.44638,4.74775,-0.721746,45.8466,6,0,0,0
0,1405008150,457982,-17.9421,20.2082,-8.45154,28.3146,-8.46202,-0.592788,3.83181,9.30806,1.92389,2.84254,-0.950027,45.8644,6,0,0,0
0,1405008151,458989,-17.4328,20.7149,-8.14007,28.2714,-8.46383,-0.591859,3.81963,9.30464,0.0454799,3.67501,-0.994715,45.7777,7,0,0,0
0,1405008152,459999,-17.9222,19.9051,-8.30865,28.0438,-8.49091,-0.593039,3.86557,9.34826,3.37128,3.95631,0.297867,45.9169,7,0,0,0
0,1405008154,461006,-17.4871,20.4275,-8.29873,28.1416,-8.45398,-0.582436,3.81901,9.29483,1.40691,4.5556,-1.26116,45.8598,7,0,0,0
0,1405008155,462007,-17.6836,20.4053,-8.46573,28.2977,-8.47089,-0.59596,3.77379,9.29262,0.829449,2.66776,-0.575589,45.8829,7,0,0,0
0,1405008156,463012,-17.9716,19.9203,-8.11593,28.0297,-8.4639,-0.611259,3.82115,9.30658,2.72927,5.29751,0.244211,46.0209,7,0,0,0
0,1405008157,464016,-17.5263,20.2926,-8.24936,28.0538,-8.47273,-0.589841,3.8295,9.31666,2.25185,3.46613,-1.67367,45.8989,6,0,0,0
0,1405008158,465021,-17.9979,20.0543,-7.80643,28.0543,-8.47581,-0.608025,3.83153,9.32146,3.24458,3.44659,-2.10202,46.0057,7,0,0,0
0,1405008159,466031,-17.584,20.0434,-8.61267,28.0198,-8.46895,-0.582437,3.81943,9.30862,2.8932,4.23558,-1.39574,45.7941,6,0,0,0
0,1405008160,467034,-17.5006,20.3237,-8.17936,28.0397,-8.45686,-0.586925,3.8092,9.29371,0.509961,3.38252,-1.66854,45.9194,6,0,0,0
0,1405008161,468035,-18.0136,19.9812,-8.45697,28.2003,-8.46266,-0.598339,3.81081,9.30038,1.66497,4.13783,-0.337478,45.8161,5,0,0,0
0,1405008162,469043,-17.4278,20.3632,-8.16747,28.0195,-8.46613,-0.613124,3.81879,9.30776,3.45921,4.20306,-0.581603,45.9736,6,0,0,0
0,1405008163,470048,-17.5433,20.3492,-8.236,28.1014,-8.47235,-0.585428,3.80901,9.30763,2.30633,3.81493,-1.33547,45.9534,6,0,0,0
0,1405008164,471053,-17.8848,19.7884,-8.53929,28.0065,-8.47658,-0.575953,3.81934,9.31512,1.83086,3.04317,-1.71231,45.8722,6,0,0,0
0,1405008165,472057,-17.6923,20.4826,-8.24662,28.2942,-8.48068,-0.599272,3.81861,9.32002,2.10452,3.73087,-0.47902,45.9067,7,0,0,0
0,1405008166,473061,-17.7633,20.0648,-8.3995,28.0835,-8.44937,-0.595118,3.8041,9.28532,-0.0953445,3.40635,-0.834481,45.8491,6,0,0,0
0,1405008167,474073,-17.4013,20.5657,-8.10845,28.1336,-8.45855,-0.607043,3.82112,9.30143,2.82214,2.73338,-1.24954,45.8493,6,0,0,0
0,1405008168,475082,-17.6306,20.4908,-8.14138,28.2311,-8.46566,-0.603714,3.80619,9.30155,2.12875,3.05958,-1.15682,45.8858,6,0,0,0
0,1405008169,476094,-17.5586,20.5613,-8.23332,28.2641,-8.46301,-0.610918,3.79383,9.29456,3.7981,4.05219,0.168468,45.7896,6,0,0,0
0,1405008170,477096,-17.9348,19.9145,-8.1603,28.015,-8.48041,-0.607051,3.81243,9.31775,0.714755,3.26445,-1.56963,45.732,7,0,0,0
0,1405008171,478102,-17.3951,20.2499,-8.39921,27.9856,-8.45395,-0.579793,3.79692,9.28558,2.294,3.83613,-1.2365,45.6386,6,0,0,0
0,1405008172,479110,-17.4581,20.4797,-8.62925,28.2607,-8.4804,-0.59847,3.81705,9.31908,1.81292,3.27757,-0.718321,45.5129,7,0,0,0
0,1405008173,480116,-18.0596,20.0276,-8.66433,28.3254,-8.447,-0.593773,3.81318,9.2868,2.7582,2.33354,-0.823312,45.5399,7,0,0,0
0,1405008174,481120,-17.8968,20.2882,-8.86228,28.4684,-8.47083,-0.610199,3.84489,9.32258,1.75397,4.43293,0.0859443,45.4021,6,0,0,0
0,1405008175,482124,-17.5638,20.5178,-8.09256,28.195,-8.47851,-0.570323,3.83761,9.32404,0.658765,3.88414,-0.797242,45.4861,7,0,0,0
0,1405008176,483134,-17.278,20.6795,-8.22543,28.1749,-8.46789,-0.579826,3.78411,9.29305,2.22735,4.00507,-1.17617,45.5294,6,0,0,0
0,1405008177,484138,-17.6197,20.3781,-8.94671,28.386,-8.47198,-0.637659,3.80957,9.31096,1.87385,3.53377,-0.618115,45.521,7,0,0,0
0,1405008178,485151,-17.6417,20.3776,-8.2254,28.1804,-8.46393,-0.598456,3.84234,9.3145,0.938966,3.68606,-0.245353,45.6046,7,0,0,0
0,1405008179,486156,-17.6038,20.3841,-8.39166,28.2104,-8.46364,-0.598983,3.80812,9.3002,2.68619,4.98941,-1.19938,45.5341,6,0,0,0
0,1405008180,487164,-17.4437,20.4083,-8.43247,28.1405,-8.46778,-0.589564,3.82735,9.31126,1.10003,3.65569,-1.11592,45.6887,7,0,0,0
0,1405008181,488171,-17.4956,20.0312,-8.36701,27.881,-8.46285,-0.593734,3.80914,9.29957,2.94766,4.47175,-1.00067,45.6306,6,0,0,0
0,1405008182,489180,-17.6911,19.784,-8.31775,27.8131,-8.45701,-0.600972,3.84928,9.31124,3.24372,2.7102,-1.41437,45.7078,7,0,0,0
0,1405008183,490182,-17.8526,19.9736,-8.42766,28.0836,-8.46967,-0.591285,3.81382,9.30753,4.16255,3.41176,-1.34641,45.6448,7,0,0,0
0,1405008184,491184,-18.1508,19.6695,-8.30729,28.0241,-8.47241,-0.614032,3.81101,9.31035,1.98946,3.8236,-1.53893,45.6647,7,0,0,0
0,1405008185,492192,-17.6477,19.8457,-8.53565,27.8953,-8.45908,-0.596218,3.84522,9.31113,0.250807,3.44039,-1.05119,45.7803,7,0,0,0
0,1405008186,493201,-17.7416,20.2338,-8.006,28.0761,-8.47742,-0.605019,3.84845,9.3297,0.707835,4.88125,-1.18823,45.708,7,0,0,0
0,1405008187,494204,-17.6793,19.9373,-8.12731,27.8587,-8.45941,-0.605753,3.82017,9.30173,0.981867,3.51256,-0.829696,45.6499,7,0,0,0
0,1405008188,495205,-18.1412,19.8337,-7.95895,28.0325,-8.47892,-0.57825,3.8211,9.31812,3.54657,4.19305,-1.31504,45.778,5,0,0,0
0,1405008189,496206,-17.8405,19.9784,-8.41781,28.0763,-8.4835,-0.581992,3.82859,9.32558,2.19385,3.6719,-1.73607,45.828,7,0,0,0
0,1405008190,497218,-17.4079,20.0947,-8.00334,27.7648,-8.47444,-0.618126,3.85734,9.33151,2.03016,3.59264,-1.71354,45.8757,6,0,0,0
0,1405008191,498226,-17.4572,20.3687,-8.36825,28.1009,-8.43757,-0.569319,3.79976,9.27118,0.0898961,3.75669,-0.467716,45.8115,6,0,0,0
0,1405008192,499240,-17.8735,19.7988,-8.42295,27.9714,-8.4621,-0.591565,3.83749,9.3104,1.18812,4.47614,-1.84706,45.9949,7,0,0,0
0,1405008193,500246,-17.6686,20.8001,-8.02347,28.4464,-8.46004,-0.609304,3.81243,9.29936,3.65566,2.94515,-1.40443,45.9406,5,0,0,0
0,1405008194,501253,-17.8842,20.4371,-8.38471,28.4222,-8.46826,-0.582295,3.80302,9.30126,1.16392,2.99765,0.92318,45.7631,6,0,0,0
0,1405008195,502263,-17.434,20.5563,-7.54585,27.9901,-8.4563,-0.577089,3.78125,9.28116,2.12174,3.71269,-1.01634,45.9597,6,0,0,0
0,1405008196,503265,-17.4691,20.3914,-8.07409,28.0387,-8.46269,-0.611735,3.8145,9.30278,1.27737,4.51383,0.235922,45.8915,7,0,0,0
0,1405008197,504278,-17.7289,19.7968,-8.48761,27.8975,-8.47249,-0.594733,3.81252,9.30978,1.76391,4.52127,-1.37716,45.8552,7,0,0,0
0,1405008198,505279,-17.6257,20.3944,-8.62127,28.3006,-8.46886,-0.599051,3.83448,9.31578,2.5894,3.29686,-1.59172,45.8491,6,0,0,0
0,1405008199,506287,-17.4604,20.4022,-8.17592,28.0707,-8.46665,-0.613295,3.81392,9.30625,0.23664,3.54164,-1.73798,45.9119,6,0,0,0
0,1405008200,507294,-17.6068,20.145,-8.22997,27.992,-8.46063,-0.618113,3.83955,9.31163,0.84162,4.43023,-1.01969,45.9658,5,0,0,0
0,1405008201,508297,-17.8659,20.3465,-8.37411,28.3425,-8.44961,-0.597243,3.83949,9.30023,1.31003,3.34276,-0.828124,45.9949,6,0,0,0
0,1405008202,509298,-17.5647,19.946,-8.57057,27.9251,-8.46893,-0.599025,3.84483,9.3201,2.61102,4.21812,-0.882807,46.0057,7,0,0,0
0,1405008203,510304,-17.5423,20.0355,-8.03775,27.8165,-8.47906,-0.591452,3.85075,9.33127,2.57132,2.80681,-1.04397,45.9425,6,0,0,0
0,1405008204,511307,-17.7494,20.1337,-7.58671,27.892,-8.49069,-0.569282,3.8107,9.32402,1.80839,3.65535,-1.93562,45.9677,6,0,0,0
0,1405008205,512314,-17.5797,20.2527,-8.33359,28.0832,-8.45199,-0.608656,3.8005,9.28711,2.10427,3.62844,-1.01055,45.9973,6,0,0,0
0,1405008206,513321,-17.7714,20.6297,-8.10812,28.4104,-8.4729,-0.595338,3.82512,9.31536,0.623349,3.87304,0.152944,46.0295,6,0,0,0
0,1405008207,514327,-17.6171,20.062,-7.84187,27.827,-8.47941,-0.593839,3.80286,9.31208,2.93135,3.21608,-1.47782,45.9924,7,0,0,0
0,1405008208,515334,-17.3818,20.2534,-7.9221,27.8403,-8.46503,-0.580881,3.80996,9.30107,1.81527,4.73567,-1.15506,46.0237,6,0,0,0
0,1405008209,516340,-17.6541,19.7787,-8.54256,27.8539,-8.46937,-0.594914,3.84718,9.32121,1.97387,3.45498,-0.927901,45.9699,7,0,0,0
0,1405008210,517346,-17.4892,20.4567,-8.14152,28.1182,-8.45114,-0.598699,3.83387,9.2994,0.699386,3.91818,-0.653246,46.0319,6,0,0,0
0,1405008211,518349,-17.8936,19.8838,-7.91519,27.8961,-8.46383,-0.59367,3.83877,9.31262,3.18367,4.63503,-0.268246,46.1048,7,0,0,0
0,1405008212,519356,-17.0592,20.9046,-7.81181,28.0899,-8.48197,-0.569292,3.84393,9.32972,0.965402,4.21932,-1.40397,46.0682,7,0,0,0
0,1405008213,520364,-17.377,20.704,-8.51142,28.3383,-8.44681,-0.559846,3.81303,9.28446,2.26908,3.77439,-1.00731,45.9705,5,0,0,0
0,1405008214,521372,-17.9008,20.191,-7.93918,28.1273,-8.45217,-0.591039,3.81015,9.29009,0.806979,3.85831,-0.713287,46.0046,7,0,0,0
0,1405008215,522376,-17.5408,20.3757,-8.02141,28.0569,-8.46155,-0.600723,3.81445,9.301,1.34658,4.08285,-0.962492,46.1177,5,0,0,0
0,1405008216,523378,-17.59,19.7333,-8.24036,27.6896,-8.44618,-0.601368,3.80948,9.28503,3.56286,3.62508,-0.24422,45.9749,6,0,0,0
0,1405008217,524381,-17.5195,20.3876,-8.1178,28.08,-8.4561,-0.601928,3.80863,9.29374,0.960886,4.54193,-0.661557,45.9883,8,0,0,0
0,1405008218,525386,-17.364,20.6511,-7.92402,28.1206,-8.46937,-0.601616,3.8306,9.31481,1.52183,3.94352,-1.2347,45.9225,6,0,0,0
0,1405008219,526397,-17.9053,20.1933,-8.29592,28.2346,-8.47181,-0.590713,3.81337,9.30926,3.36873,3.66128,-0.633312,46.032,6,0,0,0
0,1405008220,527412,-17.7771,19.9823,-8.2994,28.0035,-8.47669,-0.601926,3.84027,9.32546,1.9707,3.75464,-0.422872,45.9267,6,0,0,0
0,1405008221,528419,-17.6218,20.378,-8.21622,28.1655,-8.47059,-0.579169,3.85655,9.3252,1.46464,3.84848,-1.09262,45.9896,6,0,0,0
0,1405008222,529422,-17.5371,20.3668,-8.32913,28.1377,-8.46706,-0.597988,3.81827,9.30741,0.0511484,4.56402,-1.05529,46.0102,7,0,0,0
0,1405008223,530425,-17.8431,20.111,-8.00356,28.0514,-8.48297,-0.59417,3.80264,9.31525,1.19335,2.87828,-2.2773,46.0555,8,0,0,0
0,1405008224,531428,-17.8331,19.8706,-8.41683,27.9947,-8.48735,-0.597001,3.82278,9.32765,2.47038,4.04173,-0.95352,46.0105,6,0,0,0
0,1405008225,532434,-17.3877,20.1908,-8.21079,27.8822,-8.47706,-0.60518,3.82732,9.32068,1.81635,2.99065,-0.103633,45.9208,6,0,0,0
0,1405008226,533438,-17.719,20.3971,-8.0913,28.2041,-8.46927,-0.588808,3.82204,9.31038,1.63216,3.56598,-0.958478,46.0991,6,0,0,0
0,1405008227,534439,-17.6099,20.4841,-8.24286,28.2427,-8.45841,-0.595929,3.82336,9.3015,3.54657,3.95334,-1.2345,45.9938,6,0,0,0
0,1405008228,535444,-17.7139,20.6085,-7.86388,28.2902,-8.46243,-0.600732,3.83793,9.31146,1.93798,4.44816,-1.05325,45.8457,7,0,0,0
0,1405008229,536451,-17.6299,20.6279,-8.08376,28.3138,-8.46605,-0.591543,3.80397,9.30022,2.29749,4.62905,-0.573684,45.983,6,0,0,0
0,1405008230,537460,-18.1764,19.7246,-8.27167,28.0689,-8.47092,-0.588528,3.82414,9.31273,1.14206,2.94754,-1.12357,45.8672,7,0,0,0
0,1405008231,538461,-17.9415,19.956,-7.8415,27.9576,-8.46655,-0.597795,3.79691,9.29819,1.86409,4.51006,-0.530467,45.886,5,0,0,0
0,1405008232,539469,-17.6402,20.7521,-8.18185,28.4389,-8.47856,-0.581449,3.82635,9.32014,1.73525,3.03258,-1.43891,45.9224,7,0,0,0
0,1405008233,540478,-17.2991,20.6613,-7.93312,28.0906,-8.45478,-0.618215,3.82096,9.29867,3.39093,3.09402,-1.28015,45.9639,6,0,0,0
0,1405008234,541481,-17.9067,20.1034,-8.15168,28.1291,-8.46385,-0.600017,3.84581,9.31595,3.37662,3.50825,-0.541844,45.8827,7,0,0,0
0,1405008235,542491,-17.8142,20.06,-8.17336,28.0456,-8.47107,-0.584891,3.82427,9.31268,1.74525,3.80374,-1.53875,45.9332,7,0,0,0
0,1405008236,543498,-17.6463,20.289,-7.93725,28.0363,-8.48574,-0.590436,3.82634,9.32723,3.00671,2.49758,-0.306111,45.87,6,0,0,0
0,1405008237,544503,-17.6426,20.1441,-8.44615,28.0781,-8.45242,-0.600811,3.82884,9.29863,1.35099,3.30381,-0.33901,45.9016,6,0,0,0
0,1405008238,545505,-17.5218,20.1458,-8.36963,27.9807,-8.47992,-0.580254,3.8122,9.3155,1.28757,4.39281,-0.483165,45.795,5,0,0,0
0,1405008239,546506,-17.5855,20.3434,-7.91457,28.0311,-8.47208,-0.603362,3.8111,9.30939,0.993193,4.41693,-1.2198,45.8741,7,0,0,0
0,1405008240,547513,-17.5323,20.2109,-8.55655,28.0904,-8.47847,-0.602929,3.82194,9.31961,2.98114,2.97969,-0.54666,45.8813,6,0,0,0
0,1405008241,548521,-17.8683,20.2425,-8.23515,28.2286,-8.47861,-0.556439,3.84249,9.3253,1.76803,4.09584,-0.245201,45.7126,5,0,0,0
0,1405008242,549527,-17.4981,20.3734,-8.08663,28.0474,-8.46013,-0.601286,3.84468,9.31219,2.59768,4.78772,-1.14748,45.7721,6,0,0,0
0,1405008243,550528,-17.6103,20.2759,-8.19261,28.0776,-8.46137,-0.591876,3.83751,9.30976,1.00843,3.6628,-1.50854,45.919,4,0,0,0
0,1405008244,551531,-17.651,20.3941,-7.9196,28.1104,-8.46901,-0.584449,3.8323,9.31409,1.65138,4.22665,-0.0530289,45.6638,7,0,0,0
0,1405008245,552551,-18.14,19.6341,-8.53278,28.0601,-8.48783,-0.607182,3.78849,9.31475,1.3264,4.517,-2.13087,45.776,7,0,0,0
0,1405008246,553562,-17.8008,20.3648,-7.94935,28.192,-8.46037,-0.611572,3.80897,9.2984,0.752871,3.35035,-1.38379,45.7177,7,0,0,0
0,1405008247,554570,-18.0389,19.9469,-8.73299,28.2763,-8.45689,-0.599067,3.81848,9.29831,2.12023,3.96946,-0.616098,45.8171,6,0,0,0
0,1405008248,555575,-17.5462,20.2684,-8.23134,28.0434,-8.47311,-0.586336,3.79873,9.30418,2.89984,3.21181,-1.05603,45.7063,7,0,0,0
0,1405008249,556577,-17.2865,20.575,-8.15432,28.0828,-8.46468,-0.590259,3.82517,9.30758,1.72687,4.12999,-1.98197,45.6464,6,0,0,0
0,1405008250,557607,-17.955,19.8905,-7.63981,27.8636,-8.4638,-0.606241,3.81364,9.30308,1.4091,3.62627,-2.18632,45.599,3,0,0,0
0,1405008251,558609,-17.6772,20.3045,-8.12253,28.1199,-8.45368,-0.589983,3.81564,9.29365,0.322152,4.8885,-1.02379,45.6192,6,0,0,0
0,1405008252,559610,-17.996,20.1722,-8.47367,28.3298,-8.46328,-0.576855,3.80962,9.29909,3.44179,4.34473,-1.5169,45.6727,7,0,0,0
0,1405008253,560616,-17.5346,20.2707,-8.02024,27.9765,-8.46635,-0.618809,3.87247,9.33049,2.3944,3.52346,-1.71907,45.6954,6,0,0,0
0,1405008254,561625,-17.3908,20.2794,-8.31705,27.9797,-8.46553,-0.568234,3.82323,9.30619,2.85839,4.34914,-0.668746,45.7,7,0,0,0
0,1405008255,562629,-18.1017,20.0001,-8.70311,28.3447,-8.46596,-0.597562,3.83308,9.31247,0.913152,3.76782,-1.19369,45.8668,6,0,0,0
0,1405008256,563632,-17.6614,20.1713,-8.05011,27.993,-8.47246,-0.59128,3.85309,9.32623,1.84589,3.80902,-0.97779,45.7246,7,0,0,0
0,1405008257,564639,-17.7329,19.9925,-7.9784,27.8893,-8.46439,-0.592989,3.8407,9.31389,2.47799,3.88223,-0.416742,45.752,7,0,0,0
0,1405008258,565649,-17.4253,20.4294,-7.95788,28.0059,-8.43355,-0.601364,3.83511,9.2841,3.01037,3.77849,-0.425803,45.7501,7,0,0,0
0,1405008259,566655,-17.5467,20.5421,-7.52299,28.0439,-8.46364,-0.581057,3.85786,9.31955,0.464524,4.13547,-1.5678,45.8358,6,0,0,0
0,1405008260,567663,-17.8066,20.2819,-8.35952,28.2544,-8.47196,-0.584652,3.81466,9.30954,1.38775,3.44882,-1.41447,45.7518,6,0,0,0
0,1405008261,568669,-17.3728,20.3351,-8.25855,27.9917,-8.47457,-0.597566,3.81512,9.31292,0.691312,4.51215,-1.13877,45.8907,7,0,0,0
0,1405008262,569676,-17.6005,20.5585,-8.23247,28.2879,-8.47402,-0.597104,3.81672,9.31305,2.39695,3.69093,-1.986,45.7923,6,0,0,0
0,1405008263,570679,-17.7294,19.94,-7.92387,27.8339,-8.4785,-0.591182,3.81005,9.31402,1.33809,3.16023,-0.995645,45.7471,6,0,0,0
0,1405008264,571691,-17.9095,20.3986,-8.37378,28.4072,-8.47957,-0.588576,3.80798,9.31398,1.08075,4.1035,-1.75825,45.7677,7,0,0,0
0,1405008265,572698,-17.8514,19.9644,-8.16535,27.9986,-8.45992,-0.588853,3.84559,9.31158,2.92376,4.34089,-1.39453,45.7326,5,0,0,0
0,1405008266,573700,-17.2877,20.5456,-8.08354,28.0416,-8.46,-0.581155,3.81157,9.29718,2.41239,3.31224,-0.564268,45.6338,7,0,0,0
0,1405008267,574702,-18.0917,19.6762,-8.12935,27.9383,-8.49488,-0.591255,3.87502,9.35566,2.17693,3.59213,-0.307355,45.6767,6,0,0,0
0,1405008268,575705,-17.8188,19.94,-8.65516,28.1074,-8.46878,-0.611529,3.82892,9.31423,1.85389,3.6787,-1.0449,45.6726,7,0,0,0
0,1405008269,576712,-17.1782,21.1059,-8.0337,28.3741,-8.46817,-0.603037,3.80746,9.30432,1.81735,4.98005,0.134879,45.6617,7,0,0,0
0,1405008270,577714,-18.0228,19.9148,-7.88407,27.9924,-8.472,-0.607828,3.84521,9.32361,1.54661,2.28893,-0.570252,45.6476,5,0,0,0
0,1405008271,578724,-17.7346,19.8822,-8.21581,27.8804,-8.4472,-0.60142,3.82632,9.29288,2.55195,3.9025,-1.72262,45.7356,6,0,0,0
0,1405008272,579729,-17.722,19.7455,-8.55305,27.8766,-8.45017,-0.595341,3.82341,9.29399,3.85102,2.30769,-1.79431,45.7108,6,0,0,0
0,1405008273,580733,-17.6337,20.2305,-7.84915,27.9612,-8.45101,-0.602427,3.81832,9.29312,2.42264,3.79196,-1.8297,45.7967,6,0,0,0
0,1405008274,581741,-17.6797,19.8554,-8.40505,27.8829,-8.46372,-0.590923,3.79279,9.29349,1.78691,3.09202,-1.57831,45.6406,7,0,0,0
0,1405008275,582744,-17.8098,20.4633,-8.06948,28.3028,-8.4586,-0.596227,3.78386,9.28552,3.61802,2.53134,-2.20319,45.6368,6,0,0,0
0,1405008276,583745,-17.9481,20.208,-8.30612,28.2752,-8.48047,-0.593766,3.79942,9.31163,3.16552,3.54039,-0.584072,45.6824,6,0,0,0
0,1405008277,584750,-17.6373,20.3991,-8.41068,28.2478,-8.47109,-0.588246,3.80445,9.3048,1.01386,4.19687,-1.15351,45.7543,8,0,0,0
0,1405008278,585757,-17.7764,19.9885,-8.5383,28.0792,-8.48421,-0.589871,3.8227,9.32431,2.60547,4.13678,-1.01095,45.6726,6,0,0,0
0,1405008279,586761,-17.6521,20.1685,-8.00896,27.9733,-8.4694,-0.590048,3.83295,9.31507,2.23198,3.11757,0.222384,45.7795,6,0,0,0
0,1405008280,587766,-17.4895,20.6712,-8.35304,28.3364,-8.46383,-0.612442,3.83975,9.31424,4.49012,3.90775,-2.19317,45.8076,5,0,0,0
0,1405008281,588775,-17.4723,20.3313,-7.97862,27.9697,-8.46896,-0.586183,3.83623,9.31576,2.0398,4.57191,-0.256186,45.7941,7,0,0,0
0,1405008282,589783,-17.4972,20.0654,-8.19813,27.8565,-8.45567,-0.58966,3.83142,9.30192,2.96874,4.0552,-2.26928,45.8922,5,0,0,0
0,1405008283,590785,-17.8766,19.8873,-8.01924,27.9175,-8.47666,-0.596287,3.80843,9.31201,3.2101,2.96858,-0.20055,45.7767,6,0,0,0
0,1405008284,591789,-17.3731,20.7608,-7.98041,28.2227,-8.47289,-0.579382,3.83707,9.31926,0.949573,3.40277,-1.25068,45.6454,6,0,0,0
0,1405008285,592792,-17.9235,20.0172,-8.19796,28.0917,-8.45626,-0.584063,3.8159,9.29573,1.05225,3.75336,-1.23348,45.8451,7,0,0,0
0,1405008286,593795,-17.4806,20.2964,-8.05343,27.9709,-8.47853,-0.588028,3.81915,9.31757,1.37762,4.89287,-0.349708,45.7358,6,0,0,0
0,1405008287,594798,-17.7932,20.451,-8.05462,28.2793,-8.4741,-0.595639,3.83639,9.3211,1.68054,3.93922,-1.46383,45.734,6,0,0,0
0,1405008288,595808,-17.6964,20.2419,-8.05847,28.0684,-8.46051,-0.584808,3.82003,9.30133,2.80018,3.25184,-0.876055,45.7262,6,0,0,0
0,1405008289,596816,-17.4574,20.2614,-8.06495,27.9344,-8.4819,-0.600582,3.83925,9.3297,1.82781,3.46225,-1.14508,45.8277,6,0,0,0
0,1405008290,597818,-17.7797,20.0116,-8.15859,27.9847,-8.46791,-0.593639,3.83487,9.31473,0.458735,3.4551,-1.21162,45.9673,5,0,0,0
0,1405008291,598821,-17.5772,20.4493,-7.56756,28.0072,-8.47289,-0.55274,3.82355,9.31208,0.829582,2.13952,0.207185,45.9059,7,0,0,0
0,1405008292,599831,-17.6936,20.0236,-7.99714,27.892,-8.46932,-0.577791,3.83662,9.31573,2.59388,4.27829,-1.35374,45.8944,6,0,0,0
0,1405008293,600835,-17.6027,20.0326,-8.28427,27.9247,-8.47063,-0.582853,3.85499,9.32482,2.61391,3.60703,-1.29601,45.7924,7,0,0,0
0,1405008294,601841,-17.604,20.0345,-8.43958,27.9734,-8.45014,-0.580679,3.8255,9.29389,2.06623,4.56439,-1.66725,45.8804,7,0,0,0
0,1405008295,602854,-17.5997,20.4422,-7.90517,28.1092,-8.46567,-0.596706,3.80246,9.29959,0.90337,3.99405,-1.34776,45.8239,7,0,0,0
0,1405008296,603858,-17.3288,20.3578,-8.3431,28.006,-8.47641,-0.617286,3.87101,9.33891,2.3761,3.11972,-1.18192,45.6528,7,0,0,0
0,1405008297,604860,-17.7406,20.1674,-7.68263,27.937,-8.49158,-0.617929,3.85879,9.34768,2.25269,4.33659,-0.11717,45.8009,6,0,0,0
0,1405008298,605870,-17.5979,20.3612,-8.45711,28.2097,-8.45099,-0.569975,3.80084,9.28388,2.18468,4.78521,-0.886571,45.7818,6,0,0,0
0,1405008299,606878,-17.4621,20.2989,-8.31649,28.0381,-8.46169,-0.590465,3.81161,9.29931,2.39033,1.94579,-0.643049,45.7867,6,0,0,0
0,1405008300,607889,-17.9045,20.3967,-8.08744,28.3196,-8.46623,-0.580781,3.83986,9.31444,3.15111,4.02826,0.127179,45.7924,7,0,0,0
0,1405008301,608894,-17.4594,20.5587,-8.06903,28.1531,-8.48215,-0.589088,3.82815,9.32462,1.23584,4.18246,-2.08417,45.839,6,0,0,0
0,1405008302,609898,-17.5475,20.3247,-8.30616,28.107,-8.46957,-0.584935,3.80856,9.30488,2.762,4.28178,-0.762232,45.7929,6,0,0,0
0,1405008303,610899,-17.5424,20.1906,-8.01584,27.9222,-8.45999,-0.561706,3.78622,9.2856,2.48896,3.29828,-0.398049,45.828,6,0,0,0
0,1405008304,611901,-17.5206,20.2475,-8.56438,28.1119,-8.47227,-0.58845,3.82425,9.314,2.27902,2.72604,-0.692891,45.6892,6,0,0,0
0,1405008305,612903,-17.5052,20.0133,-8.05802,27.783,-8.48016,-0.57793,3.80345,9.312,0.922991,4.47884,-0.410513,45.7418,5,0,0,0
0,1405008306,613907,-17.8822,19.941,-8.70411,28.1634,-8.47693,-0.605006,3.81138,9.31402,0.67032,2.61418,0.289813,45.6605,7,0,0,0
0,1405008307,614908,-17.6707,20.4579,-8.15573,28.2365,-8.45838,-0.584249,3.85706,9.31464,2.51489,4.70562,-0.898172,45.605,6,0,0,0
0,1405008308,615913,-17.3783,20.3239,-7.4699,27.7645,-8.46123,-0.592898,3.80666,9.29702,4.04618,3.68981,-0.928319,45.7127,7,0,0,0
0,1405008309,616914,-17.4494,20.3243,-8.04658,27.9698,-8.45693,-0.604574,3.82596,9.30178,1.20665,4.14157,-1.46671,45.8313,7,0,0,0
0,1405008310,617920,-17.5426,20.5964,-8.14949,28.2554,-8.47717,-0.594965,3.82259,9.31819,1.47666,3.67134,-0.0626383,45.7638,6,0,0,0
0,1405008311,618921,-17.6359,20.3572,-8.36712,28.2037,-8.46389,-0.583703,3.8436,9.31404,1.12084,3.32848,0.45229,45.7109,6,0,0,0
0,1405008312,619926,-17.4247,20.0204,-8.14621,27.7632,-8.48814,-0.580358,3.81071,9.32238,1.54356,3.24272,-0.305792,45.7058,7,0,0,0
0,1405008313,620928,-17.8661,20.2473,-7.68253,28.0744,-8.45891,-0.617709,3.8422,9.31114,3.02563,3.66833,-0.764116,45.7374,6,0,0,0
0,1405008314,621937,-17.358,20.2891,-7.75951,27.8057,-8.4532,-0.621679,3.82246,9.29808,0.70992,4.02576,-1.00285,45.754,7,0,0,0
0,1405008315,622946,-17.669,20.2848,-7.89031,28.0343,-8.44287,-0.587515,3.81769,9.2845,2.61598,3.75937,-1.62203,45.688,5,0,0,0
0,1405008316,623954,-17.5979,20.2678,-8.33526,28.1059,-8.45843,-0.589711,3.83285,9.30503,0.964757,3.44911,-0.826134,45.6857,7,0,0,0
0,1405008317,624956,-17.6529,20.0566,-8.02714,27.8985,-8.48732,-0.590609,3.80082,9.31824,2.07448,4.25562,-0.885946,45.7238,7,0,0,0
0,1405008318,625962,-18.245,19.9535,-8.60743,28.3745,-8.47618,-0.594724,3.845,9.32648,1.22187,3.95404,-1.46598,45.8006,7,0,0,0
0,1405008319,626964,-17.1465,20.369,-8.04541,27.8141,-8.43469,-0.560049,3.82658,9.27903,3.19677,3.44058,0.00571373,45.8876,6,0,0,0
0,1405008320,627973,-17.8602,19.927,-8.31242,28.0209,-8.44572,-0.56417,3.82617,9.28913,1.36631,3.21425,-1.08262,45.6954,7,0,0,0
0,1405008321,628983,-17.4584,20.3136,-8.46549,28.091,-8.47745,-0.56968,3.80713,9.31053,1.21331,4.62423,-2.40125,45.8393,7,0,0,0
0,1405008322,629992,-17.5814,20.1437,-8.51713,28.0609,-8.47881,-0.593018,3.84612,9.32923,1.21177,4.77241,0.323923,45.8874,7,0,0,0
0,1405008323,630995,-17.5529,20.3498,-7.89158,28.0089,-8.4793,-0.606119,3.85172,9.33283,2.98673,3.43541,-1.61757,45.8511,7,0,0,0
0,1405008324,631996,-17.6695,20.3354,-8.08146,28.1256,-8.4614,-0.603802,3.83174,9.30818,1.3157,3.80857,-2.07425,45.8507,6,0,0,0
0,1405008326,633000,-17.6839,20.2126,-8.29755,28.1091,-8.4673,-0.568282,3.84648,9.31738,2.94486,2.80932,-0.746104,45.8961,5,0,0,0
0,1405008327,634005,-17.7818,20.2797,-8.53332,28.2892,-8.49531,-0.576881,3.83332,9.33795,3.13721,3.1539,-2.94196,45.8714,7,0,0,0
0,1405008328,635011,-17.4979,20.1356,-8.35448,27.9538,-8.4649,-0.563833,3.82503,9.30609,2.17702,3.97194,-0.32022,45.9595,6,0,0,0
0,1405008329,636017,-17.6535,20.3226,-8.25628,28.1571,-8.46965,-0.584659,3.82775,9.31281,2.7643,4.27183,-0.599949,45.7978,6,0,0,0
0,1405008330,637022,-17.7323,20.1556,-8.61609,28.1943,-8.45303,-0.583739,3.83513,9.30068,0.924881,3.02819,-0.552601,45.9601,7,0,0,0
0,1405008331,638030,-17.4777,20.1038,-7.95023,27.8,-8.45785,-0.579763,3.84413,9.30853,1.43518,3.23133,0.679821,45.9633,5,0,0,0
0,1405008332,639034,-17.3872,20.2369,-8.48957,27.9986,-8.47841,-0.618644,3.83149,9.32451,1.54907,3.46038,-1.66077,46.0141,6,0,0,0
0,1405008333,640042,-17.2804,20.2267,-7.62635,27.6748,-8.46815,-0.574426,3.82267,9.30872,2.40455,4.62909,-1.57554,46.0119,7,0,0,0
0,1405008334,641049,-17.6182,19.9948,-8.28699,27.9082,-8.47207,-0.582782,3.81223,9.30853,3.42491,3.84754,-2.24087,46.0581,7,0,0,0
0,1405008335,642050,-17.6157,20.2464,-8.45254,28.1367,-8.47106,-0.58236,3.82723,9.31373,3.19391,4.3922,-0.720383,46.1189,6,0,0,0
0,1405008336,643060,-17.7192,20.1185,-8.22976,28.0438,-8.47186,-0.595793,3.84285,9.32174,2.29034,2.7731,-1.34875,46.1512,6,0,0,0
0,1405008337,644069,-18.0292,19.6009,-8.63521,27.9967,-8.47035,-0.594057,3.82733,9.31387,4.38788,3.62388,-0.551361,46.0695,6,0,0,0
0,1405008338,645071,-17.8707,20.238,-7.83873,28.1137,-8.45095,-0.571252,3.84445,9.30187,2.3628,4.31418,-1.30089,46.2616,5,0,0,0
0,1405008339,646078,-17.3799,19.9279,-7.81414,27.5725,-8.49448,-0.59951,3.8295,9.33705,2.52246,3.46354,-0.701888,46.2635,6,0,0,0
0,1405008340,647086,-17.7164,20.0649,-8.35327,28.0401,-8.46764,-0.60025,3.81551,9.30695,2.7786,4.2976,-0.837601,46.1768,8,0,0,0
0,1405008341,648089,-17.4671,20.4628,-8.26503,28.1449,-8.46273,-0.585159,3.80702,9.29805,3.69281,3.70404,-1.28282,46.1962,5,0,0,0
0,1405008342,649096,-17.5155,20.2154,-8.41314,28.0399,-8.46804,-0.603335,3.82589,9.31178,3.07207,3.56575,-1.14683,46.2595,7,0,0,0
0,1405008343,650101,-17.5951,20.0758,-8.41248,27.9892,-8.46549,-0.593904,3.81785,9.30555,0.327593,3.80521,-1.28021,46.2434,6,0,0,0
0,1405008344,651107,-17.5033,20.1123,-8.15664,27.8819,-8.46445,-0.598606,3.8378,9.3131,1.58233,5.27181,-1.41482,46.2793,6,0,0,0
0,1405008345,652112,-17.7352,20.0888,-8.77867,28.1987,-8.45286,-0.581344,3.84598,9.30486,0.508578,3.84887,-1.73849,46.2332,8,0,0,0
0,1405008346,653119,-17.8,19.6348,-8.27256,27.7633,-8.45982,-0.608042,3.83127,9.30682,2.08986,3.62337,-0.348122,46.3656,7,0,0,0
0,1405008347,654125,-17.7474,19.914,-8.23229,27.9161,-8.45927,-0.609583,3.85012,9.3142,2.49802,3.70455,-0.991939,46.4267,5,0,0,0
0,1405008348,655135,-17.7236,19.9103,-8.01649,27.8354,-8.45297,-0.588815,3.82633,9.29733,1.47777,4.11202,-1.17627,46.2923,7,0,0,0
0,1405008349,656144,-17.3738,20.5648,-8.31351,28.1758,-8.50543,-0.663133,3.8419,9.3564,3.37048,4.35305,-1.6112,46.3433,7,0,0,0
0,1405008350,657152,-17.287,20.5767,-8.03863,28.051,-8.47545,-0.609344,3.82788,9.31972,1.86472,3.53879,-1.54017,46.2824,6,0,0,0
0,1405008351,658154,-17.8906,19.8451,-8.30021,27.9785,-8.45931,-0.595656,3.80639,9.29534,2.75368,4.12548,0.177955,46.3207,5,0,0,0
0,1405008352,659160,-17.7339,20.1305,-8.19195,28.0506,-8.46979,-0.629654,3.83509,9.31889,2.61289,2.92382,-1.78764,46.3669,7,0,0,0
0,1405008353,660177,-17.5963,20.1273,-8.05026,27.9203,-8.47463,-0.580548,3.83489,9.32002,1.2856,4.19677,-0.667577,46.3851,7,0,0,0
0,1405008354,661185,-17.7308,19.703,-8.11897,27.7219,-8.46277,-0.587482,3.86081,9.32038,3.36629,3.7641,-1.17927,46.4903,6,0,0,0
0,1405008355,662194,-17.6129,20.2901,-8.36655,28.1408,-8.46541,-0.593736,3.8477,9.31775,2.47086,1.96835,-0.861489,46.4646,6,0,0,0
0,1405008356,663201,-17.5226,20.1109,-7.77325,27.7834,-8.4823,-0.573397,3.82722,9.3234,1.86774,4.7843,-2.5874,46.4575,4,0,0,0
0,1405008357,664204,-17.6993,20.2207,-8.22012,28.1018,-8.45703,-0.581982,3.82513,9.30008,2.67749,4.09192,-1.89931,46.4717,6,0,0,0
0,1405008358,665208,-17.6057,20.1724,-8.19307,28.0002,-8.46777,-0.594922,3.85429,9.32269,0.639143,4.44888,-0.462586,46.6065,6,0,0,0
0,1405008359,666210,-17.4032,20.0909,-8.44523,27.8897,-8.48067,-0.584273,3.83071,9.32403,2.25498,3.95792,-1.7506,46.5453,6,0,0,0
0,1405008360,667217,-17.5673,20.1985,-8.4498,28.0711,-8.44057,-0.585269,3.81584,9.28151,0.451231,4.3299,-0.799957,46.4813,6,0,0,0
0,1405008361,668221,-18.0261,19.6327,-7.34422,27.6464,-8.49732,-0.591543,3.80973,9.33104,2.42516,3.32513,-0.903223,46.4449,7,0,0,0
0,1405008362,669228,-17.4821,20.0794,-8.28181,27.8818,-8.47119,-0.600364,3.80273,9.30496,2.36936,3.96451,-1.45102,46.3559,6,0,0,0
0,1405008363,670236,-17.4206,20.0369,-8.80965,27.9744,-8.47114,-0.606519,3.85563,9.32706,0.272005,3.90471,-2.07569,46.4746,7,0,0,0
0,1405008364,671243,-17.6171,20.2506,-8.3393,28.1068,-8.45732,-0.596135,3.83455,9.30513,1.61662,4.47598,-1.40247,46.3959,7,0,0,0
0,1405008365,672248,-17.3705,20.4041,-8.27653,28.0457,-8.45222,-0.598044,3.82026,9.29473,0.957834,4.5218,-2.06863,46.4117,7,0,0,0
0,1405008366,673252,-17.5248,20.0827,-7.86345,27.7897,-8.45158,-0.596819,3.82241,9.29496,0.867652,3.27534,-1.25788,46.508,5,0,0,0
0,1405008367,674254,-17.3608,20.6294,-7.71937,28.0457,-8.46852,-0.580613,3.79835,9.29949,2.26935,4.70054,-1.50412,46.513,7,0,0,0
0,1405008368,675266,-18.2486,20.1086,-8.01209,28.3118,-8.4636,-0.599941,3.84954,9.31726,1.33051,4.10793,-2.00534,46.4058,6,0,0,0
0,1405008369,676275,-17.4622,20.3151,-8.16598,28.0056,-8.48723,-0.585514,3.83848,9.33327,2.04943,4.68247,-1.50457,46.4422,6,0,0,0
0,1405008370,677278,-17.5405,20.4155,-8.3252,28.1739,-8.43417,-0.573028,3.79402,9.26597,3.49409,2.97163,-0.674845,46.3617,7,0,0,0
0,1405008371,678281,-17.7875,19.8928,-8.08667,27.8839,-8.48446,-0.58762,3.78195,9.30777,3.91194,3.37761,-1.27536,46.442,4,0,0,0
0,1405008372,679282,-17.7489,19.8902,-7.83475,27.7854,-8.45749,-0.579508,3.81571,9.29649,1.41136,3.78995,-0.604089,46.3655,6,0,0,0
0,1405008373,680283,-17.4471,20.2512,-8.94101,28.1861,-8.47812,-0.537418,3.82088,9.31485,2.30086,3.10667,-2.20733,46.3896,6,0,0,0
0,1405008374,681290,-17.6921,20.112,-8.21388,28.0174,-8.46624,-0.574214,3.80758,9.30079,-0.809346,3.93944,-2.31729,46.4114,6,0,0,0
0,1405008375,682293,-17.3669,20.4362,-8.35338,28.0897,-8.47295,-0.591029,3.84169,9.32196,1.93161,3.80501,-0.39231,46.3418,7,0,0,0
0,1405008376,683297,-17.7882,20.0099,-8.451,28.0755,-8.46686,-0.58869,3.81033,9.30338,1.13008,3.71157,-1.7904,46.2476,5,0,0,0
0,1405008377,684299,-17.3404,20.2898,-7.8658,27.8251,-8.46689,-0.58693,3.82973,9.31126,2.10957,4.34877,-0.383374,46.3234,7,0,0,0
0,1405008378,685306,-17.4339,20.3958,-7.98116,27.9934,-8.45423,-0.600844,3.79538,9.28655,2.05095,3.3021,-1.76306,46.2544,7,0,0,0
0,1405008379,686312,-17.5165,20.1313,-7.72321,27.7803,-8.47682,-0.57974,3.79998,9.30765,3.79313,2.44277,0.363838,46.2203,6,0,0,0
0,1405008380,687314,-17.5421,20.2971,-8.17695,28.0457,-8.45625,-0.4968,3.8361,9.29896,3.55867,3.34811,-0.866136,46.1687,6,0,0,0
0,1405008381,688325,-17.5093,20.1835,-8.33106,27.9885,-8.47679,-0.476183,3.78105,9.29404,2.41525,2.92632,-0.845595,46.1868,5,0,0,0
0,1405008382,689334,-17.371,20.3866,-8.1013,27.9821,-8.47364,-0.540945,3.80734,9.30543,2.01879,4.38966,-1.04779,46.1134,6,0,0,0
0,1405008383,690343,-17.4512,20.2923,-8.32397,28.0288,-8.49373,-0.553212,3.85617,9.34449,1.91391,3.6949,-1.8514,46.1635,7,0,0,0
0,1405008384,691345,-17.8296,20.1127,-8.05767,28.0596,-8.46309,-0.575075,3.80042,9.29504,0.813088,3.20091,-0.926606,46.2626,7,0,0,0
0,1405008385,692346,-17.5963,20.2099,-8.02907,27.9738,-8.46485,-0.583804,3.80907,9.30072,3.4272,4.30631,-2.29498,46.3066,7,0,0,0
0,1405008386,693347,-17.7217,20.1404,-8.22572,28.0599,-8.48177,-0.59796,3.82305,9.32275,2.17156,3.33298,-0.903155,46.2763,5,0,0,0
0,1405008387,694357,-17.9299,20.1403,-8.23162,28.1935,-8.46956,-0.585392,3.83237,9.31467,2.91064,3.48104,-0.846009,46.2566,7,0,0,0
0,1405008388,695373,-17.4333,20.1204,-8.11619,27.8321,-8.46278,-0.601195,3.81929,9.30414,2.73222,3.89612,-0.386248,46.2796,7,0,0,0
0,1405008389,696381,-17.8067,19.9128,-8.35707,27.99,-8.4535,-0.580934,3.825,9.29676,2.11209,3.15988,-0.888607,46.2636,6,0,0,0
0,1405008390,697388,-17.6614,19.9346,-8.41295,27.9301,-8.47896,-0.581296,3.80893,9.31336,2.06878,2.82033,-1.07667,46.3285,6,0,0,0
0,1405008391,698394,-17.3548,20.3244,-8.57103,28.0665,-8.46855,-0.574325,3.82675,9.31076,2.3592,3.27362,-0.683346,46.3794,5,0,0,0
0,1405008392,699397,-17.8188,19.9264,-7.97363,27.8954,-8.46434,-0.588165,3.82988,9.30908,4.2298,4.03686,0.0786127,46.1468,7,0,0,0
0,1405008393,700398,-17.9862,19.702,-8.27648,27.9315,-8.46713,-0.60142,3.80093,9.30059,0.296861,3.1217,-0.905644,46.2478,7,0,0,0
0,1405008394,701403,-17.6818,20.3947,-8.01491,28.1572,-8.46746,-0.58938,3.81089,9.3042,1.89812,4.01123,0.1112,46.1617,6,0,0,0
0,1405008395,702405,-17.848,19.987,-7.83445,27.9179,-8.45152,-0.589934,3.81448,9.29121,-0.786099,3.64977,-0.644198,46.2447,7,0,0,0
0,1405008396,703411,-17.5859,20.2074,-8.33191,28.0539,-8.45836,-0.571702,3.83746,9.30574,3.48367,3.75142,-1.16697,46.2425,8,0,0,0
0,1405008397,704416,-17.1336,20.7465,-8.08622,28.0957,-8.44864,-0.585144,3.83545,9.29691,1.75854,3.46033,-1.15602,46.3401,6,0,0,0
0,1405008398,705420,-17.8683,19.981,-8.13541,28.0125,-8.48209,-0.587531,3.82211,9.32199,0.405605,4.80324,0.296371,46.2367,6,0,0,0
0,1405008399,706424,-17.4739,20.1912,-8.20666,27.9351,-8.45155,-0.619609,3.81753,9.29442,0.257988,3.13405,-1.47656,46.1557,7,0,0,0
0,1405008400,707431,-17.3254,20.5077,-8.07308,28.0341,-8.46309,-0.594229,3.82368,9.30578,2.50184,3.95984,-1.21169,46.2396,7,0,0,0
0,1405008401,708436,-17.8619,19.759,-8.35055,27.9141,-8.47447,-0.601911,3.81399,9.31265,2.54249,3.89898,-0.418902,46.1978,6,0,0,0
0,1405008402,709444,-17.6363,20.1214,-7.83717,27.8806,-8.46511,-0.593313,3.83256,9.31121,0.914787,3.58535,-1.08413,46.1953,6,0,0,0
0,1405008403,710451,-18.2964,19.7258,-8.44968,28.2004,-8.46039,-0.591204,3.82687,9.30444,-0.11763,3.58035,-0.448515,46.0851,7,0,0,0
0,1405008404,711460,-17.8795,20.0597,-8.30152,28.1244,-8.48716,-0.596956,3.78476,9.31196,2.04192,4.57166,-0.30489,46.1077,6,0,0,0
0,1405008405,712462,-17.5345,19.7623,-8.23662,27.674,-8.47104,-0.59571,3.81445,9.30932,1.65109,4.07559,-1.04882,46.0781,7,0,0,0
0,1405008406,713468,-18.0991,19.9531,-8.34081,28.2005,-8.46937,-0.609164,3.83118,9.31553,0.608654,3.91541,-0.249177,46.0964,7,0,0,0
0,1405008407,714473,-17.3608,20.2949,-8.25384,27.9537,-8.45922,-0.586742,3.8683,9.32022,1.67681,4.11835,-0.458103,46.1859,7,0,0,0
0,1405008408,715477,-17.3539,20.4757,-8.04278,28.0196,-8.47056,-0.568423,3.84658,9.32039,2.75209,4.31239,-0.48833,46.1852,7,0,0,0
0,1405008409,716481,-17.5863,20.3853,-8.20409,28.1451,-8.44852,-0.583561,3.8262,9.2929,1.13846,3.7165,-1.12724,46.1584,5,0,0,0
0,1405008410,717490,-17.6967,20.1697,-8.04865,28.0138,-8.48417,-0.596965,3.8492,9.33562,2.27694,5.28342,-2.33022,46.0613,6,0,0,0
0,1405008411,718491,-17.8677,20.1483,-8.48066,28.2335,-8.48211,-0.559027,3.83407,9.32517,3.13093,4.51598,-1.4526,46.0771,7,0,0,0
0,1405008412,719492,-17.7763,20.073,-8.06575,27.9996,-8.46764,-0.586412,3.83851,9.31553,1.7629,3.55403,-1.09681,46.103,7,0,0,0
0,1405008413,720495,-17.625,19.7264,-8.40422,27.7561,-8.44509,-0.593299,3.82373,9.28937,2.51461,3.36534,-1.39253,46.149,7,0,0,0
0,1405008414,721503,-17.6013,20.0409,-7.75721,27.778,-8.44549,-0.615204,3.84568,9.30022,1.17225,4.38071,-0.402529,46.0429,6,0,0,0
0,1405008415,722509,-17.1478,20.7134,-8.10621,28.0856,-8.45563,-0.597088,3.83671,9.30454,1.76825,2.74944,-1.37791,46.0903,6,0,0,0
0,1405008416,723513,-17.7992,20.3069,-8.29471,28.2486,-8.45386,-0.56849,3.81093,9.29054,2.57908,3.40361,-0.61886,46.205,7,0,0,0
0,1405008417,724517,-17.3126,20.3977,-7.74429,27.8526,-8.47251,-0.597014,3.81734,9.31192,1.93681,3.1168,-1.05745,46.0671,6,0,0,0
0,1405008418,725525,-17.6549,20.0137,-8.18249,27.9141,-8.49766,-0.600735,3.7826,9.3209,1.18363,3.76662,-0.185398,46.2101,7,0,0,0
0,1405008419,726527,-17.6103,20.2533,-8.03078,28.0145,-8.41006,-0.612252,3.82896,9.26093,2.49283,2.54807,0.480369,46.0317,7,0,0,0
0,1405008420,727529,-17.4272,20.0197,-8.21948,27.7859,-8.44317,-0.609708,3.74521,9.25664,1.01962,3.26647,0.147058,45.9943,7,0,0,0
0,1405008421,728534,-17.26,20.1957,-8.27171,27.8243,-8.45294,-0.628933,3.78338,9.28233,0.558244,2.84487,-0.609047,46.0331,7,0,0,0
0,1405008422,729536,-17.49,20.2989,-8.39749,28.0796,-8.46372,-0.572377,3.80618,9.29781,1.33042,3.46577,-1.27932,45.918,7,0,0,0
0,1405008423,730538,-17.4492,20.0478,-8.16764,27.8046,-8.46227,-0.583242,3.84062,9.31131,3.00905,3.72669,-1.30757,46.0423,6,0,0,0
0,1405008424,731550,-18.0626,19.7084,-8.16988,27.954,-8.4711,-0.618545,3.82472,9.31507,1.51572,4.10305,-1.78132,46.1101,7,0,0,0
0,1405008425,732554,-17.6859,19.6693,-8.53377,27.7939,-8.51122,-0.636699,3.86864,9.37084,0.475255,3.72039,-1.77174,46.1028,5,0,0,0
0,1405008426,733569,-17.2574,20.3555,-7.80305,27.8038,-8.47481,-0.647689,3.87366,9.34062,1.01308,3.94292,-0.947054,46.146,4,0,0,0
0,1405008427,734571,-17.8667,19.7131,-8.12015,27.8166,-8.48018,-0.60971,3.86072,9.33758,1.26725,4.26359,-0.591013,46.1567,5,0,0,0
0,1405008428,735582,-17.2263,20.0798,-8.2825,27.7226,-8.42438,-0.610588,3.82375,9.27168,0.962985,4.89928,-1.45824,46.2691,7,0,0,0
0,1405008429,736588,-17.5949,19.7427,-8.52867,27.7865,-8.45587,-0.616055,3.82842,9.30258,1.91155,4.11467,-0.369839,46.3035,5,0,0,0
0,1405008430,737602,-17.1024,20.156,-8.31803,27.7118,-8.49429,-0.651926,3.80913,9.33206,1.36674,4.73932,-1.24226,46.3261,6,0,0,0
0,1405008431,738606,-17.7285,19.9779,-7.78772,27.822,-8.44182,-0.609456,3.80907,9.28142,1.08553,4.50225,-1.90509,46.5467,6,0,0,0
0,1405008432,739608,-17.5243,19.6566,-7.82573,27.4723,-8.44411,-0.584792,3.87002,9.3071,3.51075,3.35172,-1.76695,46.4344,7,0,0,0
0,1405008433,740609,-17.3728,19.7619,-8.23241,27.5702,-8.46634,-0.603501,3.83606,9.31442,0.791399,4.15386,-0.145137,46.4947,6,0,0,0
0,1405008434,741613,-17.5958,19.9707,-8.66292,27.9909,-8.45525,-0.583186,3.83545,9.30279,2.4379,3.12078,-0.410405,46.5,6,0,0,0
0,1405008435,742618,-18.1262,19.4365,-8.17174,27.8049,-8.46174,-0.602883,3.81885,9.30313,1.63299,3.42132,-0.706366,46.5583,7,0,0,0
0,1405008436,743622,-17.5527,19.9173,-8.30575,27.8169,-8.45577,-0.595789,3.81012,9.29366,1.23112,3.06141,-1.60173,46.5734,6,0,0,0
0,1405008437,744629,-17.8059,20.1095,-8.27285,28.1048,-8.46696,-0.588529,3.82291,9.30862,0.866192,4.05591,-0.950225,46.5215,6,0,0,0
0,1405008438,745632,-17.4129,20.1584,-8.57248,27.9832,-8.45052,-0.588089,3.81608,9.29084,0.472142,2.3099,-1.65577,46.5418,7,0,0,0
0,1405008439,746646,-17.5753,20.139,-8.14748,27.9437,-8.48418,-0.63178,3.86277,9.34352,3.29102,4.16108,0.687934,46.563,6,0,0,0
0,1405008440,747648,-17.2231,20.0257,-7.96925,27.5894,-8.44916,-0.583162,3.81769,9.28994,2.46907,3.16968,-0.475851,46.5964,6,0,0,0
0,1405008441,748653,-17.4501,19.9439,-7.94879,27.6667,-8.43658,-0.586733,3.83235,9.28478,0.147507,3.24673,-1.03176,46.661,6,0,0,0
0,1405008442,749661,-17.8003,19.6528,-8.10443,27.7266,-8.45897,-0.595583,3.82407,9.30228,1.42355,3.35641,-0.77947,46.6205,7,0,0,0
0,1405008443,750669,-17.3811,19.6352,-8.33432,27.5155,-8.47486,-0.596955,3.82477,9.31711,3.72167,3.72614,0.163236,46.7307,7,0,0,0
0,1405008444,751673,-17.4257,19.9693,-8.16585,27.7328,-8.46235,-0.61392,3.83141,9.30956,1.72549,3.31875,-1.53301,46.6659,7,0,0,0
0,1405008445,752677,-17.4385,19.5628,-7.90069,27.372,-8.47741,-0.573652,3.80891,9.31146,1.90168,4.42736,-0.592685,46.7808,6,0,0,0
0,1405008446,753680,-16.992,19.9391,-7.7261,27.3128,-8.45554,-0.591021,3.80789,9.29223,0.71928,2.52292,-2.04172,46.7339,7,0,0,0
0,1405008447,754681,-17.2602,19.7459,-7.93369,27.3999,-8.46327,-0.638023,3.82518,9.30946,0.926833,3.56875,-0.654901,46.6168,7,0,0,0
0,1405008448,755691,-16.9372,19.8914,-7.96889,27.3137,-8.45827,-0.649378,3.78939,9.29105,1.3556,3.52414,-1.11493,46.7039,6,0,0,0
0,1405008449,756693,-17.275,19.6488,-8.14011,27.4001,-8.47885,-0.615181,3.82731,9.32296,2.51561,2.96558,-0.841865,46.7141,7,0,0,0
0,1405008450,757702,-17.0793,20.2555,-8.0354,27.6868,-8.46052,-0.614125,3.84535,9.31366,1.63603,5.32821,-1.33608,46.6189,7,0,0,0
0,1405008451,758712,-16.867,20.2167,-8.26071,27.5943,-8.44505,-0.620205,3.81613,9.28797,3.67915,3.34445,-1.36897,46.6417,7,0,0,0
0,1405008452,759716,-17.6812,19.4343,-8.1884,27.5203,-8.45851,-0.627664,3.81043,9.29837,1.03658,4.26646,0.126639,46.6356,7,0,0,0
0,1405008453,760717,-17.5471,19.6015,-7.85044,27.4545,-8.47521,-0.624488,3.80964,9.31303,0.865439,2.67379,-0.232508,46.6179,7,0,0,0
0,1405008454,761724,-17.7184,19.5626,-8.30226,27.6688,-8.44267,-0.609321,3.83706,9.29371,1.48733,5.05471,-0.672871,46.5518,6,0,0,0
0,1405008455,762728,-17.2019,20.1708,-7.83636,27.6437,-8.45359,-0.611662,3.86844,9.31677,0.919946,2.88852,-1.30297,46.5517,6,0,0,0
0,1405008456,763743,-17.0694,20.1316,-7.8537,27.5377,-8.46939,-0.589303,3.8529,9.32324,1.91418,4.20499,-0.627214,46.5411,7,0,0,0
0,1405008457,764746,-17.3466,19.5894,-7.84392,27.3162,-8.48115,-0.595192,3.82227,9.32169,0.761754,3.51028,-0.9501,46.4956,5,0,0,0
0,1405008458,765758,-17.5095,19.4762,-8.14256,27.4264,-8.4938,-0.588518,3.82822,9.33522,3.18394,3.53113,-2.20235,46.5957,5,0,0,0
0,1405008459,766763,-16.8954,20.0801,-8.35859,27.5415,-8.42181,-0.642095,3.83002,9.27406,0.845107,4.13469,-0.475131,46.5089,7,0,0,0
0,1405008460,767764,-17.5548,19.2403,-8.43527,27.3773,-8.47877,-0.594499,3.84995,9.33086,1.49548,4.27038,-0.728546,46.4684,7,0,0,0
0,1405008461,768765,-17.4157,19.9979,-8.17199,27.749,-8.45889,-0.843893,3.70576,9.27349,0.333645,2.14603,-0.296449,46.4542,7,0,0,0
0,1405008462,769771,-17.5734,19.6555,-8.57785,27.7262,-8.47324,-0.614892,3.81764,9.31388,3.15489,2.9241,-1.56188,46.4842,6,0,0,0
0,1405008463,770777,-16.9463,20.2287,-8.40892,27.6963,-8.44627,-0.568541,3.84063,9.29587,2.64546,4.34328,-0.709799,46.4836,7,0,0,0
0,1405008464,771781,-17.3418,19.991,-8.46237,27.7847,-8.47178,-0.594917,3.84401,9.32209,2.42066,4.21705,0.0347166,46.4062,6,0,0,0
0,1405008465,772782,-17.7122,19.5768,-8.14921,27.6294,-8.41876,-0.621262,3.80838,9.26095,0.643685,4.30506,-1.10421,46.2665,7,0,0,0
0,1405008466,773790,-17.4206,20.0644,-7.97123,27.7416,-8.49662,-0.594942,3.80695,9.32949,3.15012,3.52743,-1.259,46.4044,6,0,0,0
0,1405008467,774800,-17.7945,19.4356,-8.12547,27.5755,-8.47156,-0.598676,3.7941,9.30166,1.77376,4.25587,-1.56339,46.3546,6,0,0,0
0,1405008468,775804,-17.6127,19.4376,-8.29115,27.5094,-8.51591,-0.590546,3.87002,9.37265,0.619669,3.76249,-0.906328,46.372,7,0,0,0
0,1405008469,776812,-16.9347,19.9994,-8.37511,27.5119,-8.44147,-0.545446,3.81872,9.28109,2.97912,2.98131,-0.106649,46.4789,7,0,0,0
0,1405008470,777815,-17.448,20.0334,-8.19421,27.8014,-8.47758,-0.637358,3.83066,9.32467,1.34354,3.82656,-1.02698,46.3922,5,0,0,0
0,1405008471,778816,-17.3751,19.9367,-7.71941,27.5492,-8.4807,-0.556813,3.80566,9.3121,1.82431,4.11556,-0.703843,46.3789,7,0,0,0
0,1405008472,779817,-17.6157,19.2958,-8.16767,27.3743,-8.47727,-0.589356,3.86348,9.33477,2.37674,5.04806,-0.193778,46.4854,6,0,0,0
0,1405008473,780824,-17.2095,19.7931,-7.90118,27.3927,-8.46162,-0.582623,3.88569,9.32937,3.43843,2.82805,-1.45656,46.4513,7,0,0,0
0,1405008474,781835,-17.2739,19.5672,-8.20597,27.3606,-8.47918,-0.592314,3.82323,9.32011,2.42635,3.33367,-2.50626,46.3926,7,0,0,0
0,1405008475,782843,-17.3607,19.7816,-7.8739,27.4719,-8.46486,-0.578892,3.82022,9.305,1.91045,3.29796,-2.14741,46.5059,6,0,0,0
0,1405008476,783854,-17.4788,19.2861,-7.89287,27.1985,-8.47587,-0.599406,3.82567,9.31856,2.39423,3.62867,-1.28657,46.3577,5,0,0,0
0,1405008477,784861,-17.4072,19.5184,-8.09796,27.378,-8.46132,-0.58229,3.82579,9.30428,1.72357,3.79102,-0.530369,46.2495,6,0,0,0
0,1405008478,785867,-17.1168,20.1593,-7.96334,27.6188,-8.44855,-0.642039,3.84987,9.30654,2.93473,2.74123,-0.687988,46.3871,6,0,0,0
0,1405008479,786875,-17.2101,20.0031,-8.12991,27.6117,-8.4564,-0.627205,3.82837,9.30379,1.34459,4.33143,-1.53684,46.3724,6,0,0,0
0,1405008480,787876,-17.5757,19.9196,-7.89716,27.7139,-8.48045,-0.614156,3.80333,9.31453,2.97418,3.73031,-1.56403,46.4383,6,0,0,0
0,1405008481,788886,-17.3808,19.6384,-7.96899,27.4092,-8.4735,-0.579502,3.82425,9.31455,1.21696,3.64961,-1.62644,46.4547,7,0,0,0
0,1405008482,789889,-17.7574,19.6954,-7.93657,27.6807,-8.47636,-0.603145,3.84702,9.32802,2.1029,4.20704,-1.40331,46.4133,6,0,0,0
0,1405008483,790897,-17.2173,19.9307,-8.11154,27.5584,-8.48063,-0.579709,3.81039,9.31538,0.812801,4.20699,-0.306026,46.3184,6,0,0,0
0,1405008484,791905,-17.4319,19.7082,-8.07991,27.524,-8.4759,-0.597876,3.86996,9.33675,0.426151,3.03725,-1.65316,46.3204,6,0,0,0
0,1405008485,792906,-17.6473,19.7705,-8.0589,27.6992,-8.4555,-0.604256,3.84146,9.30685,2.01367,3.66708,-1.73897,46.3213,6,0,0,0
0,1405008486,793913,-17.1943,20.018,-8.14388,27.6168,-8.48478,-0.597527,3.8551,9.33864,1.96728,3.98128,-0.940501,46.4492,7,0,0,0
0,1405008487,794915,-17.4352,19.8826,-7.95064,27.6137,-8.47743,-0.60253,3.85029,9.3303,3.11334,3.19036,-0.40101,46.3954,6,0,0,0
0,1405008488,795922,-17.5681,19.4505,-7.96498,27.3935,-8.46951,-0.581989,3.85244,9.32269,2.19723,4.27393,-1.138,46.4259,6,0,0,0
0,1405008489,796923,-17.4276,19.6515,-8.11441,27.4908,-8.46977,-0.61017,3.81656,9.30997,2.26682,4.38731,-1.36582,46.4578,7,0,0,0
0,1405008490,797931,-17.5572,19.3711,-8.03674,27.3511,-8.46326,-0.597782,3.83206,9.30961,2.95919,4.92893,-1.48362,46.5329,6,0,0,0
0,1405008491,798948,-17.3281,19.5667,-7.83662,27.2861,-8.47586,-0.59819,3.81044,9.31222,1.92707,3.9217,-0.0860594,46.514,7,0,0,0
0,1405008492,799956,-17.4279,19.5994,-8.20775,27.4815,-8.46037,-0.613506,3.81426,9.30069,2.98207,3.62075,-0.136531,46.6115,6,0,0,0
0,1405008493,800965,-17.4202,19.9154,-7.90974,27.6161,-8.45561,-0.586948,3.81399,9.29454,2.34215,4.23884,-1.64985,46.6563,7,0,0,0
0,1405008494,801974,-17.0826,19.9001,-8.12267,27.4556,-8.48935,-0.60155,3.86031,9.34521,2.31808,4.44132,-0.769245,46.8157,6,0,0,0
0,1405008495,802982,-17.4053,19.9876,-8.32831,27.7815,-8.46882,-0.512908,3.83318,9.31006,2.41577,2.93146,-2.24412,46.7386,8,0,0,0
0,1405008496,803996,-17.2293,19.5387,-7.91797,27.2269,-8.45927,-0.586085,3.82488,9.30228,1.95144,5.79869,-0.966062,46.7547,7,0,0,0
0,1405008497,804997,-17.1532,19.84,-8.33132,27.5185,-8.46779,-0.604078,3.81957,9.309,3.28922,3.91341,-1.30564,46.7418,7,0,0,0
0,1405008499,806004,-17.4271,19.3522,-8.15788,27.2903,-8.46454,-0.588114,3.81353,9.30255,2.75397,4.43063,-0.374685,46.7916,7,0,0,0
0,1405008500,807008,-17.3569,19.7924,-8.27585,27.5951,-8.45946,-0.596818,3.82236,9.3021,2.59431,3.08032,-0.463408,46.8492,6,0,0,0
0,1405008501,808011,-17.3535,19.5196,-8.32791,27.4137,-8.47939,-0.570965,3.81419,9.31526,2.60652,4.04901,-0.871412,46.7814,7,0,0,0
0,1405008502,809012,-17.2591,19.5695,-8.02614,27.2995,-8.46327,-0.575285,3.84672,9.31425,0.9002,3.72683,-1.76108,46.8237,6,0,0,0
0,1405008503,810016,-17.2337,19.5959,-8.41632,27.4196,-8.45976,-0.587764,3.81909,9.30045,0.892632,3.3375,-1.78444,46.8082,6,0,0,0
0,1405008504,811024,-17.711,19.5277,-8.21098,27.6122,-8.48497,-0.651339,3.86938,9.34831,0.741177,0.650247,-1.95353,46.8119,6,0,0,0
0,1405008505,812027,-17.1924,19.6846,-8.09728,27.3611,-8.46202,-0.57814,3.83048,9.30659,0.906782,5.07744,-1.69916,46.7809,7,0,0,0
0,1405008506,813036,-17.258,20.0987,-8.2411,27.7437,-8.48176,-0.596176,3.84199,9.33041,2.02315,5.05871,0.0484928,46.7902,6,0,0,0
0,1405008507,814045,-17.4013,19.5434,-8.25878,27.4401,-8.46317,-0.597946,3.82296,9.30579,1.74461,3.96689,-1.4444,46.86,8,0,0,0
0,1405008508,815048,-16.9358,20.0477,-8.1669,27.4851,-8.47932,-0.600112,3.84401,9.32928,1.03065,3.50974,-0.0978159,46.8423,6,0,0,0
0,1405008509,816055,-17.6748,19.2392,-7.89529,27.2925,-8.46355,-0.592858,3.82622,9.30715,1.28568,3.20758,-0.619499,46.8952,7,0,0,0
0,1405008510,817063,-17.7205,19.357,-8.23437,27.5048,-8.46427,-0.602713,3.84463,9.31602,1.59352,4.77216,-0.522787,46.9108,6,0,0,0
0,1405008511,818064,-17.089,19.7044,-8.64019,27.4763,-8.47572,-0.586875,3.85353,9.32909,1.1079,3.05247,0.0406727,46.8803,7,0,0,0
0,1405008512,819066,-17.4243,19.1714,-8.55655,27.283,-8.47632,-0.597455,3.8404,9.3249,1.77265,4.5628,-0.444268,46.9523,6,0,0,0
0,1405008513,820068,-17.0685,20.1417,-8.60879,27.7693,-8.4732,-0.598344,3.86652,9.3329,3.29107,3.22951,-0.405463,46.9174,7,0,0,0
0,1405008514,821078,-17.4357,19.6684,-8.02042,27.4805,-8.46836,-0.61151,3.82298,9.31141,1.6299,3.71854,-2.63323,46.8995,7,0,0,0
0,1405008515,822081,-17.5646,19.3388,-8.99134,27.6288,-8.44792,-0.595791,3.77735,9.27311,0.773023,4.7902,-1.68925,46.7661,6,0,0,0
0,1405008516,823087,-16.8758,19.652,-8.78739,27.3535,-8.48197,-0.642544,3.81556,9.32283,2.12017,3.42532,-1.66093,46.7747,7,0,0,0
0,1405008517,824090,-17.652,19.3634,-8.08409,27.4206,-8.49161,-0.6311,3.82533,9.33482,0.321701,4.06951,-0.933887,46.6677,6,0,0,0
0,1405008518,825096,-17.2063,19.7667,-8.97678,27.7013,-8.4538,-0.598557,3.84856,9.30786,1.1241,4.01347,-1.00311,46.7635,6,0,0,0
0,1405008519,826103,-17.4979,19.1522,-8.22433,27.2144,-8.45189,-0.595007,3.83418,9.29997,2.92919,3.45066,-0.274438,46.7513,6,0,0,0
0,1405008520,827107,-16.6035,19.9769,-8.77839,27.4193,-8.45993,-0.600867,3.83436,9.30772,2.0279,3.57682,-1.81633,46.7687,6,0,0,0
0,1405008521,828110,-17.5584,19.167,-8.40649,27.3193,-8.45681,-0.607143,3.84857,9.31116,1.50272,3.35967,-2.03755,46.7795,7,0,0,0
0,1405008522,829126,-17.4714,19.6785,-8.62269,27.692,-8.46274,-0.612406,3.82414,9.30683,2.26361,3.44698,-0.772099,46.8663,5,0,0,0
0,1405008523,830127,-17.5645,19.6078,-8.19253,27.5698,-8.46163,-0.601285,3.83969,9.3115,0.268491,2.31307,-0.335065,46.8477,5,0,0,0
0,1405008524,831136,-17.3899,19.4286,-8.45602,27.4114,-8.46843,-0.618013,3.80788,9.30571,3.99972,3.65751,-0.807044,46.8518,6,0,0,0
0,1405008525,832137,-17.4471,20.0031,-8.47231,27.8623,-8.44788,-0.625766,3.83516,9.29874,1.55929,3.77277,-0.901508,46.9431,6,0,0,0
0,1405008526,833144,-17.595,19.4512,-8.35024,27.5257,-8.44855,-0.598199,3.83692,9.29827,2.27597,4.33513,-0.738568,46.9205,7,0,0,0
0,1405008527,834151,-17.52,19.5805,-8.68943,27.674,-8.48437,-0.613036,3.85075,9.33749,2.29811,4.89713,-0.635641,46.983,8,0,0,0
0,1405008528,835157,-16.9974,19.6262,-8.33542,27.2686,-8.47882,-0.602971,3.83125,9.32375,2.50443,3.89087,-0.703299,46.9988,7,0,0,0
0,1405008529,836160,-17.0511,19.4132,-8.86928,27.3181,-8.45299,-0.602227,3.81338,9.29288,2.15492,4.15235,-1.1492,46.9086,6,0,0,0
0,1405008530,837168,-17.4156,19.5133,-8.66641,27.5532,-8.45811,-0.579376,3.83802,9.30622,1.12609,3.12252,-1.39033,46.9646,7,0,0,0
0,1405008531,838175,-17.5764,19.8033,-8.18006,27.713,-8.46187,-0.601476,3.81623,9.30208,2.98721,3.24192,-0.56245,46.9456,7,0,0,0
0,1405008532,839185,-17.435,19.7665,-8.87328,27.8106,-8.46803,-0.61515,3.8471,9.32127,1.34112,4.02361,-1.70664,46.941,5,0,0,0
0,1405008533,840189,-17.4576,19.515,-8.66024,27.579,-8.47915,-0.580887,3.81961,9.31788,2.09151,3.97998,-0.992534,46.9263,6,0,0,0
0,1405008534,841191,-17.157,19.9611,-8.4406,27.6415,-8.45506,-0.587231,3.83035,9.30078,2.15399,3.28081,-0.5965,47.0714,8,0,0,0
0,1405008535,842196,-17.5072,19.6159,-8.87348,27.7493,-8.46179,-0.606714,3.83033,9.30814,2.49029,4.27094,-1.76986,47.0615,6,0,0,0
0,1405008536,843201,-17.2131,19.9181,-8.60299,27.6953,-8.46582,-0.589049,3.84272,9.31577,3.23261,3.39734,-1.87165,46.9989,6,0,0,0
0,1405008537,844206,-17.5127,19.5781,-8.50214,27.6095,-8.49419,-0.591837,3.807,9.3271,1.79014,3.95968,-1.01464,47.0289,6,0,0,0
0,1405008538,845207,-17.3797,19.6193,-8.72461,27.6241,-8.47285,-0.587339,3.83703,9.31971,2.57076,3.50535,-1.02412,46.9463,7,0,0,0
0,1405008539,846216,-17.2007,19.7018,-8.34284,27.4523,-8.45203,-0.58564,3.83857,9.30132,1.80591,3.55636,-1.0778,46.9153,7,0,0,0
0,1405008540,847223,-17.1365,20.0706,-8.41764,27.701,-8.4746,-0.632223,3.81389,9.31473,2.13733,3.88375,-2.16667,46.9022,7,0,0,0
0,1405008541,848229,-17.274,19.7174,-8.0558,27.4238,-8.47092,-0.592781,3.83667,9.31815,1.88531,4.33147,-1.24627,46.9539,5,0,0,0
0,1405008542,849230,-17.3281,19.8185,-8.80997,27.7606,-8.44785,-0.566441,3.79989,9.28042,3.046,4.7809,-1.50113,46.9552,7,0,0,0
0,1405008543,850231,-17.5536,19.5133,-8.44065,27.5706,-8.48608,-0.590544,3.84516,9.33528,1.46436,4.09099,-0.161876,46.9728,5,0,0,0
0,1405008544,851233,-17.1668,19.6683,-8.62336,27.4937,-8.47486,-0.576891,3.8383,9.3214,2.14818,4.21206,-1.0999,46.9043,6,0,0,0
0,1405008545,852241,-17.4907,19.961,-8.66101,27.9174,-8.46384,-0.603959,3.87431,9.328,2.2548,3.82773,-0.292424,46.9681,6,0,0,0
0,1405008546,853247,-17.3179,19.8589,-8.6513,27.7332,-8.47444,-0.590936,3.8264,9.31701,2.81796,4.69467,-0.685519,46.9319,6,0,0,0
0,1405008547,854255,-17.1192,19.9283,-8.1643,27.5111,-8.47605,-0.607316,3.84766,9.32827,2.64683,3.53939,-0.688478,47.0251,7,0,0,0
0,1405008548,855259,-17.2516,19.4917,-8.30476,27.3223,-8.46585,-0.594704,3.83419,9.31264,0.903724,4.88548,-0.705025,46.9604,5,0,0,0
0,1405008549,856263,-17.3729,19.3903,-8.25667,27.3125,-8.45585,-0.59335,3.82087,9.29799,1.99251,3.42066,-1.15888,47.0161,6,0,0,0
0,1405008550,857267,-17.6122,19.5176,-8.39163,27.5961,-8.44707,-0.582601,3.82528,9.29114,0.664068,5.12622,-0.739814,47.0926,7,0,0,0
0,1405008551,858275,-17.0746,19.7441,-8.70062,27.5149,-8.45898,-0.595066,3.86255,9.31814,2.09549,4.48291,-0.774106,46.9785,7,0,0,0
0,1405008552,859295,-17.1548,20.2728,-8.6853,27.9412,-8.46646,-0.602899,3.81297,9.30501,2.4836,4.63859,-1.38549,47.06,7,0,0,0
0,1405008553,860303,-17.3248,19.8025,-8.31032,27.5926,-8.45534,-0.61035,3.83289,9.30356,2.00921,3.78222,-0.776466,47.122,5,0,0,0
0,1405008554,861308,-17.3186,19.5555,-8.2894,27.4056,-8.46583,-0.596764,3.84921,9.31895,2.52313,4.34748,-1.58239,47.0497,7,0,0,0
0,1405008555,862315,-17.8497,19.4245,-8.25919,27.643,-8.46855,-0.607457,3.82994,9.31417,1.32162,4.38356,-1.35231,47.1245,7,0,0,0
0,1405008556,863319,-16.8497,19.8938,-8.7566,27.5019,-8.50156,-0.666507,3.84166,9.35303,1.43204,4.78849,0.117295,47.2457,7,0,0,0
0,1405008557,864322,-17.2799,19.5717,-8.88095,27.5774,-8.4667,-0.607863,3.82889,9.31208,1.27485,3.94731,-1.17225,47.2247,6,0,0,0
0,1405008558,865327,-17.4295,19.7409,-7.72277,27.4432,-8.44133,-0.610803,3.86126,9.3026,1.30745,5.44979,-1.79353,47.1721,6,0,0,0
0,1405008559,866330,-17.2056,19.7542,-8.39965,27.5103,-8.46774,-0.608647,3.84638,9.32028,1.67575,3.95045,0.0356917,47.1579,7,0,0,0
0,1405008560,867339,-17.3878,19.5201,-8.71941,27.5571,-8.45284,-0.581384,3.79709,9.28474,2.60251,4.05692,-0.764114,47.0162,6,0,0,0
0,1405008561,868341,-17.2852,19.3198,-8.5808,27.3068,-8.47062,-0.605526,3.81383,9.30931,2.11816,4.03147,-0.481958,47.0667,6,0,0,0
0,1405008562,869345,-17.4406,19.3519,-8.91432,27.5343,-8.45114,-0.585291,3.82801,9.29613,1.1373,3.36824,-0.998739,47.0384,7,0,0,0
0,1405008563,870346,-17.8239,19.2131,-8.78932,27.6422,-8.48641,-0.613305,3.84183,9.33569,2.19157,2.85432,-0.779907,46.8951,6,0,0,0
0,1405008564,871355,-17.2555,19.3439,-8.63181,27.3212,-8.44366,-0.575013,3.78984,9.27302,0.511535,4.03351,-1.42752,46.9569,7,0,0,0
0,1405008565,872356,-17.2389,19.8605,-8.68911,27.6969,-8.46248,-0.586413,3.82719,9.30617,2.15925,4.02155,-0.79978,47.021,7,0,0,0
0,1405008566,873357,-17.37,19.5689,-8.70356,27.5756,-8.45948,-0.620874,3.84761,9.31409,2.6489,4.06697,-1.46741,46.9912,6,0,0,0
0,1405008567,874362,-16.96,19.6199,-8.39054,27.2577,-8.45689,-0.600002,3.83288,9.3043,0.560951,3.43723,-1.86626,47.0569,7,0,0,0
0,1405008568,875367,-17.5499,19.2715,-8.73579,27.4901,-8.42978,-0.583974,3.8359,9.27989,2.70769,4.10087,-1.25757,47.1287,6,0,0,0
0,1405008569,876371,-17.4968,19.3019,-8.51997,27.4097,-8.47234,-0.586961,3.81536,9.31032,3.44822,3.8819,-1.4606,47.0215,7,0,0,0
0,1405008570,877376,-17.242,19.557,-8.29679,27.3605,-8.47025,-0.591018,3.84479,9.32078,2.7257,4.67568,-0.686474,47.011,5,0,0,0
0,1405008571,878386,-16.8765,20.0417,-8.12448,27.4316,-8.46891,-0.594983,3.83994,9.31781,1.9226,4.45884,-0.317144,47.1422,6,0,0,0
0,1405008572,879393,-16.8289,19.5068,-8.61995,27.1667,-8.46345,-0.599238,3.79461,9.29452,2.80772,3.55535,-0.846698,47.1224,6,0,0,0
0,1405008573,880401,-17.3108,19.3494,-8.65682,27.3679,-8.46905,-0.616842,3.82301,9.3124,2.00408,4.82843,-0.670317,47.1506,6,0,0,0
0,1405008574,881410,-16.9996,20.0176,-8.34639,27.5563,-8.43566,-0.622548,3.85511,9.29568,1.124,4.04019,-1.76012,47.1904,6,0,0,0
0,1405008575,882414,-17.4661,19.3422,-8.11437,27.2952,-8.48846,-0.623658,3.84022,9.33757,2.0351,4.18267,-1.80323,47.1718,7,0,0,0
0,1405008576,883421,-17.0739,19.9127,-8.30109,27.5126,-8.4672,-0.589298,3.83832,9.31523,2.86157,4.55201,-1.74214,47.1667,6,0,0,0
0,1405008577,884437,-17.0023,19.5531,-8.41363,27.2432,-8.5086,-0.633194,3.8344,9.35413,1.62989,4.38218,-1.52401,47.1556,6,0,0,0
0,1405008578,885442,-16.8708,19.7817,-8.44652,27.3365,-8.41744,-0.636269,3.81586,9.26385,1.5707,3.78767,-1.47185,47.1646,7,0,0,0
0,1405008579,886452,-16.891,19.6401,-8.42603,27.2403,-8.467,-0.586314,3.85446,9.32152,0.91511,4.29377,-0.284519,47.1546,7,0,0,0
0,1405008580,887453,-16.9183,19.8409,-8.46832,27.4154,-8.47981,-0.63463,3.83832,9.32967,1.09804,4.05732,-1.2451,47.24,5,0,0,0
0,1405008581,888459,-17.3867,19.7597,-8.72071,27.7271,-8.46332,-0.59629,3.78205,9.2891,2.01449,4.25037,-0.791419,47.2047,6,0,0,0
0,1405008582,889460,-17.3715,19.8711,-8.10875,27.6112,-8.35518,-0.279762,3.75501,9.16446,1.42118,3.37962,-2.29336,47.2419,7,0,0,0
0,1405008583,890462,-17.482,19.4772,-8.08516,27.3925,-8.46124,-0.61784,3.83088,9.3086,2.37984,4.09124,-0.94635,47.2044,7,0,0,0
0,1405008584,891470,-16.9159,19.6693,-8.37617,27.2615,-8.46703,-0.590573,3.85817,9.32335,0.905615,5.1487,-1.71342,47.1568,6,0,0,0
0,1405008585,892480,-17.2949,19.9145,-8.30131,27.6517,-8.45988,-0.57761,3.83235,9.30538,1.21048,4.49489,-1.92491,47.1941,5,0,0,0
0,1405008586,893489,-17.4481,19.6503,-7.88969,27.4376,-8.498,-0.593494,3.82584,9.33838,1.64167,2.88103,-1.00103,47.1582,6,0,0,0
0,1405008587,894496,-17.3103,19.756,-8.02417,27.4652,-8.44912,-0.608655,3.8414,9.30131,1.4927,4.16354,-0.0227493,47.1521,7,0,0,0
0,1405008588,895506,-17.3922,19.8709,-8.03475,27.6025,-8.51715,-0.714876,3.84845,9.37355,2.42215,3.85233,-0.763553,47.3051,6,0,0,0
0,1405008589,896508,-17.2052,19.767,-7.4553,27.2458,-8.4435,-0.555053,3.79821,9.27508,3.52156,4.52336,-0.625834,47.1984,7,0,0,0
0,1405008590,897514,-17.1208,20.0709,-7.83279,27.5194,-8.4453,-0.558735,3.83631,9.29261,2.28392,3.88165,-1.91024,47.2568,8,0,0,0
0,1405008591,898518,-17.69,19.4089,-8.07356,27.474,-8.47814,-0.613368,3.84913,9.33118,3.29337,4.05697,-0.752694,47.2525,6,0,0,0
0,1405008592,899526,-17.1189,20.1607,-7.67044,27.5381,-8.46509,-0.600064,3.81521,9.30449,1.09159,4.47783,-0.580339,47.2464,6,0,0,0
0,1405008593,900532,-16.7964,19.9101,-7.83604,27.2018,-8.46729,-0.603194,3.87171,9.33,0.402017,3.05558,-0.861624,47.2108,6,0,0,0
0,1405008594,901541,-17.1693,19.8501,-7.85148,27.3944,-8.45981,-0.601897,3.82739,9.30481,1.56225,3.31844,-0.228232,47.2011,7,0,0,0
0,1405008595,902550,-17.5815,19.4988,-8.0029,27.4474,-8.47057,-0.61273,3.83225,9.3173,1.37278,4.03966,-2.51495,47.2759,7,0,0,0
0,1405008596,903558,-16.9595,19.7527,-7.47877,27.0874,-8.46927,-0.602033,3.82742,9.31344,1.37024,3.60342,-0.164326,47.3772,6,0,0,0
0,1405008597,904565,-17.4263,19.4732,-7.78926,27.2682,-8.45725,-0.582908,3.82525,9.3004,2.83898,4.92332,-0.631248,47.3487,7,0,0,0
0,1405008598,905566,-17.3485,19.4043,-7.8723,27.1932,-8.47875,-0.597222,3.82632,9.3213,1.43567,3.61105,-1.23194,47.2738,6,0,0,0
0,1405008599,906569,-17.164,19.6398,-7.8837,27.2484,-8.45777,-0.597027,3.8318,9.30446,2.31077,4.60694,-1.76316,47.3649,7,0,0,0
0,1405008600,907571,-17.2141,19.2603,-7.83793,26.9947,-8.46047,-0.57963,3.82684,9.30377,1.96208,3.74849,-1.44899,47.2977,5,0,0,0
0,1405008601,908578,-17.4029,19.8713,-8.00597,27.6012,-8.4692,-0.573961,3.80443,9.30217,0.944241,3.70141,-1.228,47.2815,6,0,0,0
0,1405008602,909600,-16.7439,19.9104,-7.78068,27.1536,-8.48564,-0.604451,3.79952,9.31708,2.81259,3.59336,-1.41853,47.1489,7,0,0,0
0,1405008603,910604,-17.4578,19.7402,-8.19461,27.5972,-8.46455,-0.595572,3.80228,9.29842,1.68311,3.50088,-0.296727,47.2794,6,0,0,0
0,1405008604,911612,-16.8711,19.553,-7.91026,27.0097,-8.46314,-0.610258,3.79911,9.29679,1.14353,3.82206,-1.10044,47.2658,8,0,0,0
0,1405008605,912618,-17.3082,19.5791,-7.53078,27.1961,-8.47445,-0.631691,3.83281,9.32233,3.00158,4.91139,-1.63743,47.14,7,0,0,0
0,1405008606,913627,-17.1092,19.7912,-8.18326,27.4114,-8.468,-0.588425,3.8602,9.32493,0.9009,4.90355,-0.276971,47.1272,6,0,0,0
0,1405008607,914640,-17.3595,19.7556,-8.10889,27.5207,-8.46044,-0.584737,3.83674,9.30814,1.28455,4.70493,-0.0969802,47.2078,5,0,0,0
0,1405008608,915643,-17.1265,19.8181,-7.78418,27.3253,-8.47029,-0.594427,3.81667,9.30946,1.49296,5.17064,-1.67217,47.173,5,0,0,0
0,1405008609,916649,-17.0134,19.7723,-8.06607,27.3031,-8.44733,-0.580573,3.83609,9.2957,3.14096,4.50057,-0.783292,47.1494,7,0,0,0
0,1405008610,917662,-17.0207,19.6114,-7.82675,27.1213,-8.47822,-0.575528,3.84358,9.32655,2.1959,4.86538,-1.05993,47.2364,7,0,0,0
0,1405008611,918670,-17.6792,19.021,-8.33078,27.2719,-8.46475,-0.597856,3.8539,9.31998,0.747191,2.99034,-0.948383,47.1979,7,0,0,0
0,1405008612,919676,-17.0716,19.7736,-8.14735,27.3644,-8.47208,-0.60077,3.81854,9.31227,1.20586,3.43586,-0.809598,47.2852,7,0,0,0
0,1405008613,920684,-17.0365,19.4212,-8.0203,27.0509,-8.45881,-0.582578,3.84727,9.31088,2.56467,4.17888,-0.815939,47.3961,6,0,0,0
0,1405008614,921685,-17.1052,19.5642,-7.59711,27.0751,-8.47209,-0.600708,3.82964,9.31683,2.35923,3.80334,-0.530086,47.4012,8,0,0,0
0,1405008615,922686,-16.8407,19.8697,-7.90482,27.2195,-8.46426,-0.593432,3.85026,9.31775,2.30874,4.51291,-0.354866,47.3092,7,0,0,0
0,1405008616,923687,-17.0324,19.9457,-7.95605,27.4086,-8.46837,-0.589913,3.8312,9.3134,0.914669,2.7979,-1.5497,47.3776,7,0,0,0
0,1405008617,924701,-17.1279,20.2462,-7.51218,27.5628,-8.47191,-0.593818,3.81954,9.31207,1.84416,3.82852,-1.00932,47.3082,6,0,0,0
0,1405008618,925709,-17.5466,19.4981,-7.77152,27.3579,-8.44528,-0.629648,3.81575,9.28866,1.64825,4.50639,-0.980391,47.1264,6,0,0,0
0,1405008619,926715,-17.4537,19.3918,-7.97991,27.2828,-8.46278,-0.548015,3.8086,9.29647,1.51062,4.43752,-0.129102,47.2084,5,0,0,0
0,1405008620,927722,-17.1638,19.6963,-7.64068,27.2199,-8.4534,-0.592862,3.85222,9.30865,1.19033,4.60018,-0.86009,47.2112,6,0,0,0
