0,1405542637,utime,,bx(uT),by(uT),bz(uT),,B(uT),ax,,,,ay,,az,,,,,A,,,,,gx,,,gy,,,,gz,,,T(C),rate,,track,tilt,roll
0,1405542637,mins,,-1000,-1000,-1000,,,,,0,,,,-2000,-2000,-2000,,0,,,-2000,,-2000,-2000,-2000,,0,,0,,-180,-180
0,1405542637,maxs,,,1000,,1000,,1000,,,,1000,,,2000,,2000,,2000,2000,,2000,,,2000,,2000,,2000,,37000,360,180,180
0,1405542637,attr,,,,,F,,,,,F,,,,,F,,,,,,F,,,,,,F,,,,,F,,,,F,,,,,F,,,,,F,,,,,,F,,,,,F,,,,,F,,,,,I,F,F,F
0,1405542668,32413,-1.40673,2.85933,-4.12844,5.21523,-1.4649,-0.151769,0.560887,1.57594,1.08986,0.255072,0.0695652,5.42889,0,0,0,0
0,1405542669,33414,-8.75934,17.2289,-24.9876,31.5902,-8.7406,-0.775968,3.45563,9.43088,3.14941,2.62334,-2.35576,54.1941,10,0,0,0
0,1405542670,34416,-8.83154,17.186,-25.1643,31.7269,-8.78511,-0.861303,3.34429,9.43951,1.87308,2.42848,-0.955663,54.1079,11,0,0,0
0,1405542671,35417,-8.86945,17.2053,-24.9485,31.5772,-8.7484,-0.862881,3.31794,9.39616,2.09109,2.75662,-1.6757,54.1619,11,0,0,0
0,1405542672,36425,-9.12382,17.1168,-24.5293,31.2716,-8.76902,-0.894,3.32971,9.42242,0.760028,3.28366,-1.47222,54.2378,5,0,0,0
0,1405542673,37442,-9.14902,16.7304,-24.8255,31.3036,-8.74288,-0.935097,3.33672,9.40458,1.78684,3.3626,-1.60284,54.2538,4,0,0,0
0,1405542674,38451,-8.94094,16.8249,-24.7411,31.2272,-8.73972,-0.918803,3.33934,9.40096,2.52963,3.92779,-0.566337,54.3164,7,0,0,0
0,1405542675,39457,-9.06861,16.9675,-24.6656,31.2814,-8.75711,-0.886373,3.31974,9.40709,0.309494,3.22892,-2.21273,54.2338,7,0,0,0
0,1405542676,40466,-8.66587,17.0039,-25.0503,31.4921,-8.74599,-0.909404,3.34982,9.40961,2.6848,3.53845,-1.84841,54.2758,6,0,0,0
0,1405542677,41467,-8.5286,17.5056,-24.9112,31.6189,-8.77396,-0.873096,3.32701,9.4241,1.39908,3.06136,0.0851415,54.2753,6,0,0,0
0,1405542678,42469,-8.60518,17.3917,-24.6733,31.3893,-8.74284,-0.951983,3.32267,9.40126,0.549019,3.2492,-0.838674,54.2745,7,0,0,0
0,1405542679,43470,-8.52068,17.4867,-24.8406,31.5507,-8.74951,-0.936505,3.32177,9.40559,1.94012,2.9423,-1.33055,54.2383,7,0,0,0
0,1405542680,44477,-8.57003,17.1247,-24.9799,31.4754,-8.73905,-0.877272,3.33196,9.39375,3.94538,2.18078,-2.23691,54.4269,7,0,0,0
0,1405542681,45485,-8.53524,17.1169,-24.8033,31.3216,-8.74325,-0.94838,3.30944,9.39661,1.28466,2.96773,-1.58511,54.3705,6,0,0,0
0,1405542682,46488,-8.83105,16.9123,-24.7169,31.224,-8.74968,-0.947532,3.29873,9.39874,1.21316,4.24596,-1.49971,54.1551,7,0,0,0
0,1405542683,47491,-8.66977,17.1269,-24.6029,31.2057,-8.75623,-0.844471,3.31438,9.40052,3.60878,2.52259,-1.91795,54.3475,7,0,0,0
0,1405542684,48494,-8.80771,17.4376,-24.6218,31.4305,-8.74094,-0.861186,3.33137,9.39381,2.90902,2.32065,-1.87026,54.291,6,0,0,0
0,1405542685,49496,-8.3711,17.334,-24.7044,31.3186,-8.75399,-0.881604,3.32921,9.40708,1.36189,2.55913,-0.687331,54.2206,6,0,0,0
0,1405542686,50503,-9.04886,17.1689,-25.2108,31.8157,-8.73215,-0.909955,3.31706,9.38517,3.10616,3.2155,-0.689474,54.2525,6,0,0,0
0,1405542687,51507,-8.74712,17.2114,-24.5227,31.2107,-8.75227,-0.892102,3.30351,9.3974,1.6109,2.92806,-2.06042,54.2803,6,0,0,0
0,1405542688,52511,-8.87233,17.3639,-24.272,31.1344,-8.76546,-0.905726,3.33,9.42032,3.4349,2.62524,-1.96809,54.3335,7,0,0,0
0,1405542689,53514,-8.82414,16.7077,-25.0406,31.3695,-8.7229,-0.896067,3.33662,9.38216,0.962502,3.48358,-1.34575,54.353,7,0,0,0
0,1405542690,54521,-8.75431,17.1095,-25.1085,31.6198,-8.7748,-0.888491,3.36151,9.43855,3.23865,3.19883,-2.24521,54.3719,5,0,0,0
0,1405542691,55537,-8.95987,16.9983,-24.7543,31.3368,-8.73672,-0.913693,3.32824,9.39373,1.00521,3.23948,-0.875315,54.3502,6,0,0,0
0,1405542692,56539,-8.92476,17.5164,-24.3794,31.3182,-8.73745,-0.872235,3.31767,9.38673,2.65894,3.05194,-0.448785,54.3972,4,0,0,0
0,1405542693,57544,-8.90878,17.1949,-24.5956,31.3045,-8.75057,-0.896004,3.33652,9.40785,2.89908,3.52729,-0.494978,54.277,6,0,0,0
0,1405542694,58552,-8.28541,17.489,-24.6037,31.3027,-8.74482,-0.883255,3.32784,9.39822,1.95403,3.16456,-2.00022,54.2867,7,0,0,0
0,1405542695,59557,-9.21273,16.439,-24.4909,30.9018,-8.73313,-0.885525,3.33234,9.38915,1.36947,3.54773,-0.978831,54.407,6,0,0,0
0,1405542696,60558,-8.91676,16.7795,-25.0679,31.4556,-8.74498,-0.877434,3.30522,9.38984,3.97711,2.42681,-1.24977,54.4506,7,0,0,0
0,1405542697,61566,-9.04255,17.2542,-24.8607,31.5837,-8.75296,-0.900817,3.3442,9.41326,0.96864,2.26294,-0.79611,54.4249,7,0,0,0
0,1405542698,62568,-8.65029,17.4353,-24.6092,31.3756,-8.73559,-0.881192,3.35705,9.39983,1.86444,2.74677,-1.79437,54.419,6,0,0,0
0,1405542699,63596,-8.78604,16.9824,-24.8966,31.3917,-8.75105,-0.892128,3.3473,9.41176,2.11811,2.90752,-1.41969,54.4267,5,0,0,0
0,1405542700,64605,-8.59964,17.274,-24.5956,31.2616,-8.7305,-0.880349,3.33797,9.38823,2.46496,2.98288,-1.56016,54.3533,6,0,0,0
0,1405542701,65621,-8.77098,17.2363,-24.3034,31.0592,-8.74684,-0.884701,3.32629,9.39969,0.907104,3.96682,-0.785269,54.3879,6,0,0,0
0,1405542702,66625,-8.6799,17.1736,-24.9417,31.5018,-8.73931,-0.885177,3.36644,9.40702,2.77287,3.14894,-1.32715,54.3557,6,0,0,0
0,1405542703,67626,-8.73763,16.8012,-24.7889,31.1948,-8.74186,-0.893294,3.30942,9.38991,2.77682,4.69969,-1.62192,54.3655,7,0,0,0
0,1405542704,68628,-8.6423,17.8076,-24.5811,31.56,-8.73251,-0.895073,3.33728,9.39124,1.22122,2.93936,-0.803014,54.4704,7,0,0,0
0,1405542705,69634,-8.70473,17.2936,-24.7089,31.3906,-8.75587,-0.889652,3.31438,9.40435,0.829971,2.49665,-1.21289,54.4214,6,0,0,0
0,1405542707,71620,-8.78984,17.3899,-24.366,31.1989,-8.73569,-0.894615,3.32337,9.38922,1.6637,3.33393,-2.07182,54.4457,1,0,0,0
0,1405542708,72622,-8.58196,17.3384,-24.6033,31.2985,-8.75049,-0.901919,3.31367,9.40026,2.0911,3.32475,-1.6846,54.5611,8,0,0,0
0,1405542709,73623,-8.50805,17.2736,-24.3963,31.0797,-8.72586,-0.915231,3.35832,9.39449,0.596651,3.14079,-0.897095,54.4039,6,0,0,0
0,1405542710,74626,-8.64482,17.1186,-24.5621,31.1621,-8.74494,-0.881594,3.32458,9.39702,2.39863,2.59397,-2.58908,54.4413,7,0,0,0
0,1405542711,75635,-8.93956,16.9898,-24.5085,31.1326,-8.73867,-0.903819,3.33917,9.39847,1.61005,3.51633,-1.9932,54.4334,7,0,0,0
0,1405542712,76637,-8.69976,17.2565,-24.7699,31.4169,-8.75433,-0.886923,3.35054,9.41547,1.04876,2.27308,-1.37758,54.6013,7,0,0,0
0,1405542713,77651,-8.72484,17.2758,-24.5153,31.2342,-8.73642,-0.924755,3.3231,9.39272,1.09399,2.73142,-1.10345,54.356,3,0,0,0
0,1405542714,78653,-8.52093,17.0609,-24.8665,31.3373,-8.73729,-0.905233,3.3381,9.39695,1.45711,3.07903,-2.02416,54.5404,6,0,0,0
0,1405542715,79663,-8.86364,16.9122,-25.0767,31.5187,-8.74244,-0.896215,3.34381,9.4029,2.38114,1.88025,-0.381102,54.5046,6,0,0,0
0,1405542716,80671,-9.02917,16.7708,-24.5448,31.0681,-8.72878,-0.893185,3.33371,9.38632,1.09655,3.55934,-1.62268,54.4757,4,0,0,0
0,1405542717,81672,-8.93633,17.1376,-24.549,31.2444,-8.76101,-0.874075,3.34954,9.42012,3.29495,4.26671,-1.13113,54.4455,6,0,0,0
0,1405542718,82687,-8.91587,17.0248,-24.6392,31.2478,-8.76666,-0.868013,3.34815,9.42433,3.3563,2.4279,-1.77642,54.5307,7,0,0,0
0,1405542719,83699,-8.70411,17.2142,-24.6769,31.3216,-8.77461,-0.893161,3.34687,9.43362,-0.279362,1.48681,-1.70345,54.5331,6,0,0,0
0,1405542720,84707,-8.9813,17.4082,-24.5314,31.3926,-8.75759,-0.876947,3.32953,9.41011,1.70166,3.07937,-1.04439,54.4874,7,0,0,0
0,1405542721,85714,-9.10702,17.4161,-24.714,31.576,-8.74538,-0.892032,3.34062,9.4041,0.877351,3.60099,-1.23994,54.5596,6,0,0,0
0,1405542722,86718,-8.5982,17.2964,-24.5337,31.2249,-8.74373,-0.889361,3.3388,9.40167,1.98063,3.32121,-1.7493,54.5943,7,0,0,0
0,1405542723,87741,-8.65926,17.3293,-24.7178,31.4047,-8.74724,-0.891214,3.34005,9.40555,0.905659,2.74002,-1.18382,54.6439,3,0,0,0
0,1405542724,88747,-8.6189,16.9915,-25.0538,31.4752,-8.76295,-0.868378,3.3134,9.40861,0.457164,3.07021,-1.15931,54.5226,7,0,0,0
0,1405542725,89755,-8.58664,17.3087,-24.0156,30.8232,-8.71332,-0.899209,3.32562,9.36965,2.44539,2.29935,-1.37723,54.6042,2,0,0,0
0,1405542726,90761,-8.47352,17.0682,-24.9666,31.4079,-8.72275,-0.916452,3.35695,9.39124,1.20216,2.84226,-2.30763,54.5451,7,0,0,0
0,1405542727,91768,-8.80284,17.0103,-24.9052,31.4183,-8.74157,-0.937188,3.31166,9.3947,2.0336,1.82473,-0.853661,54.4746,7,0,0,0
0,1405542728,92773,-9.16212,17.6277,-24.137,31.2615,-8.74938,-0.913978,3.34337,9.41091,2.40221,3.43494,-1.76687,54.5554,6,0,0,0
0,1405542729,93780,-8.91926,17.1731,-24.7502,31.4172,-8.74783,-0.843889,3.31441,9.39265,-0.43409,3.33992,-0.377819,54.6239,7,0,0,0
0,1405542730,94790,-8.68678,17.2076,-24.4857,31.1626,-8.74754,-0.878997,3.27063,9.38025,4.26436,3.06163,-1.29311,54.5022,6,0,0,0
0,1405542731,95791,-6.4724,17.8832,-27.4471,33.3923,-8.7601,-0.917326,3.32049,9.4131,2.60078,1.5372,-1.29629,54.6192,6,0,0,0
0,1405542732,96801,-8.84154,17.3833,-24.4334,31.2625,-8.74309,-0.887199,3.32986,9.3977,1.83121,3.80928,0.567315,54.641,7,0,0,0
0,1405542733,97804,-8.58994,17.0578,-24.8491,31.3406,-8.75531,-0.901656,3.32206,9.40768,2.34211,2.59706,-2.76505,54.6292,6,0,0,0
0,1405542734,98805,-8.46109,17.5833,-24.6341,31.4261,-8.75843,-0.885517,3.32557,9.41029,0.864146,3.15328,-2.36536,54.6667,7,0,0,0
0,1405542735,99807,-8.61009,17.5769,-24.8572,31.638,-8.71191,-0.906708,3.35472,9.37943,0.802719,3.66696,-0.782698,54.5988,7,0,0,0
0,1405542736,100814,-8.85831,17.5609,-24.9245,31.7504,-8.75111,-0.876436,3.36714,9.41741,2.57559,2.47293,-0.757362,54.706,7,0,0,0
0,1405542737,101825,-8.70385,17.3063,-24.9959,31.6237,-8.74477,-0.890267,3.34321,9.40429,1.68429,3.4004,-0.707565,54.6966,6,0,0,0
0,1405542738,102834,-8.8416,17.1523,-24.7245,31.3636,-8.74643,-0.898238,3.3407,9.4057,1.90096,3.29027,-0.542216,54.7303,6,0,0,0
0,1405542739,103836,-8.92076,17.0463,-24.858,31.4337,-8.76063,-0.877111,3.30111,9.40294,1.19216,2.39584,-1.70865,54.5374,6,0,0,0
0,1405542740,104839,-8.40372,17.5971,-24.0324,30.949,-8.75021,-0.902484,3.33116,9.40623,1.79289,3.11469,-1.8735,54.5635,5,0,0,0
0,1405542742,106730,-8.83924,17.0682,-24.4895,31.1318,-8.77565,-0.851008,3.33472,9.42638,0.903621,2.83328,-0.684614,54.6305,1,0,0,0
0,1405542743,107732,-8.68849,17.4412,-25.3752,31.9936,-8.76428,-0.878525,3.36636,9.42957,1.83978,3.62646,-1.22616,54.6553,7,0,0,0
0,1405542744,108733,-9.37043,16.7198,-25.8668,32.1939,-8.7224,-0.910033,3.25304,9.35364,2.38154,3.08021,-2.25942,54.7134,7,0,0,0
0,1405542745,109757,-11.8739,16.5151,-27.7972,34.4445,-8.74067,-0.88552,3.34615,9.40107,2.44834,3.32133,-1.60645,54.7209,5,0,0,0
0,1405542746,110758,-12.3141,16.472,-27.0832,34.0068,-8.71506,-0.898698,3.31186,9.36634,1.50558,1.6386,-1.2996,54.73,6,0,0,0
0,1405542747,111759,-12.1518,16.6472,-27.3004,34.2069,-8.74649,-0.878855,3.32204,9.39731,1.80864,4.16142,-1.00368,54.7487,7,0,0,0
0,1405542748,112763,-12.3602,17.0339,-26.8575,34.1212,-8.74711,-0.877984,3.31267,9.3945,1.3199,4.62839,-1.03799,54.6093,6,0,0,0
0,1405542749,113770,-12.0711,16.9683,-26.9075,34.0242,-8.75527,-0.879235,3.37036,9.42269,1.58515,3.04235,-0.856836,54.7628,7,0,0,0
0,1405542750,114775,-12.4661,16.419,-27.0275,33.9923,-8.73159,-0.893058,3.38899,9.40869,0.126388,3.34468,-0.712517,54.6178,6,0,0,0
0,1405542751,115778,-12.3599,16.847,-27.4467,34.4951,-8.74346,-0.903508,3.33698,9.40212,0.482175,2.82375,-0.056601,54.6954,5,0,0,0
0,1405542752,116793,-11.8307,16.9914,-27.6905,34.5751,-8.76236,-0.899829,3.3602,9.4276,2.28882,2.17705,-0.571054,54.7349,7,0,0,0
0,1405542753,117796,-11.2551,15.353,-32.5458,37.7044,-8.75684,-0.882676,3.31868,9.40612,1.40299,3.21162,-1.11395,54.6618,6,0,0,0
0,1405542754,118800,-11.3737,15.3334,-32.3325,37.5482,-8.73211,-0.866269,3.33543,9.38751,2.59927,2.99343,-0.639871,54.7441,7,0,0,0
0,1405542755,119808,-11.6247,15.5431,-32.2011,37.5983,-8.74087,-0.906805,3.33662,9.3999,2.56001,2.17216,-2.12072,54.5948,5,0,0,0
0,1405542756,120809,-11.7979,15.2671,-32.5651,37.8518,-8.72088,-0.93683,3.40689,9.40948,1.52119,3.64175,-2.12118,54.7428,7,0,0,0
0,1405542757,121811,-11.8344,14.8425,-32.178,37.3601,-8.66927,-0.906741,3.39194,9.35327,1.94279,1.90702,-0.757687,54.6693,3,0,0,0
0,1405542758,122821,-11.7209,15.2155,-32.4703,37.7255,-8.74282,-0.895726,3.30507,9.3895,1.96072,3.24827,-1.04365,54.7477,6,0,0,0
0,1405542759,123831,-11.5411,15.364,-32.0244,37.3472,-8.73215,-0.896994,3.33418,9.38998,2.38852,3.29114,-0.717764,54.7357,7,0,0,0
0,1405542760,124833,-11.4301,15.47,-32.5763,37.831,-8.74378,-0.875416,3.34239,9.40168,1.99678,3.59204,-1.58959,54.8129,7,0,0,0
0,1405542761,125846,-11.7795,15.4603,-32.1831,37.5969,-8.74025,-0.929053,3.34831,9.40565,2.33668,3.70661,-1.0105,54.7427,7,0,0,0
0,1405542762,126855,-11.3476,16.0802,-31.6842,37.2992,-8.75002,-0.871898,3.3478,9.40908,2.2253,3.93061,0.172968,54.8185,7,0,0,0
0,1405542763,127859,-11.4813,15.9321,-31.5056,37.1248,-8.74443,-0.862771,3.33117,9.39714,2.13695,3.72137,-0.32222,54.8205,2,0,0,0
0,1405542764,128865,-11.3457,15.9445,-31.9645,37.479,-8.737,-0.917262,3.34251,9.39941,1.55007,3.57009,-0.711833,54.722,6,0,0,0
0,1405542765,129868,-11.348,15.4278,-32.2025,37.4673,-8.73378,-0.884958,3.34039,9.39257,1.55712,3.65985,-2.45277,54.7568,7,0,0,0
0,1405542766,130878,-9.61883,12.5749,-30.1431,34.0478,-8.49468,-0.910526,3.59534,9.26904,1.41892,3.20368,-1.77795,54.8958,7,0,0,0
0,1405542767,131885,-12.3868,9.82783,-31.2613,35.0327,-8.60178,-0.904475,3.56626,9.35558,2.81684,3.24509,-1.35848,54.7779,7,0,0,0
0,1405542768,132892,-11.4731,15.7466,-31.5031,37.041,-8.7892,-0.916835,3.14569,9.38008,0.72663,2.54563,-1.2262,54.7606,3,0,0,0
0,1405542769,133899,-11.4358,15.5936,-31.6345,37.0767,-8.72578,-0.882136,3.21959,9.34255,1.16505,3.99701,-1.30041,54.8362,6,0,0,0
0,1405542770,134902,-11.4797,15.7203,-31.4611,36.9961,-8.73781,-0.877419,3.35781,9.40181,1.89064,3.51155,-1.05418,54.8352,6,0,0,0
0,1405542771,135912,-11.7321,15.3713,-31.4326,36.9044,-8.7498,-0.900142,3.31825,9.40106,0.89518,3.5191,-0.47438,54.9162,7,0,0,0
0,1405542772,136919,-11.6383,15.9847,-31.5943,37.2714,-8.74609,-0.893206,3.37024,9.41544,3.50651,2.15875,-1.20856,54.8092,7,0,0,0
0,1405542773,137932,-12.0529,15.1628,-31.9358,37.3507,-8.74422,-0.921361,3.33508,9.40389,3.8082,3.25765,-0.412861,54.7754,7,0,0,0
0,1405542774,138940,-12.4151,12.2156,-31.3394,35.8541,-8.71659,-0.929863,3.34829,9.38375,1.7139,3.18867,0.342543,54.8127,6,0,0,0
0,1405542775,139946,-11.8646,15.5578,-31.355,36.9587,-8.6126,-0.912387,3.51911,9.34845,3.41401,3.68743,-1.7624,54.8096,6,0,0,0
0,1405542776,140954,-11.9178,15.0325,-32.0408,37.3446,-8.74216,-0.88299,3.30151,9.38642,3.71492,3.00244,-1.30225,54.8811,6,0,0,0
0,1405542777,141966,-11.8804,15.921,-31.5465,37.28,-8.74005,-0.903722,3.37563,9.41276,1.50896,1.72224,-1.69457,54.8492,6,0,0,0
0,1405542778,142980,-11.6937,15.293,-32.1844,37.5028,-8.74635,-0.897168,3.35055,9.40902,2.03079,2.3261,-1.10022,54.9372,3,0,0,0
0,1405542779,143981,-11.4526,15.9199,-31.4943,37.1012,-8.74763,-0.879035,3.32792,9.40047,2.37716,3.37276,-2.25828,54.8868,7,0,0,0
0,1405542780,144984,-11.7536,16.0901,-31.1744,36.9984,-8.76246,-0.898921,3.33302,9.41795,1.30426,3.01207,-0.839333,54.9228,6,0,0,0
0,1405542782,146012,-11.4359,15.8988,-31.3597,36.9727,-8.72577,-0.888442,3.33424,9.38326,0.793943,3.95506,-0.942019,54.9173,2,0,0,0
0,1405542783,147013,-11.5611,15.6555,-31.7039,37.2006,-8.74112,-0.901773,3.32814,9.39664,1.79506,2.17147,-0.606951,54.8792,6,0,0,0
0,1405542784,148020,-11.9847,16.1348,-31.3746,37.2603,-8.73128,-0.885229,3.35967,9.39714,0.67564,2.83864,-1.26068,54.9333,6,0,0,0
0,1405542785,149028,-12.1942,15.4947,-31.5812,37.2311,-8.72959,-0.887021,3.3456,9.39072,1.30673,2.60622,-2.17341,54.9685,6,0,0,0
0,1405542786,150037,-11.322,15.773,-31.7959,37.2553,-8.76157,-0.892329,3.32083,9.41219,1.78258,3.00391,-1.79764,54.9026,6,0,0,0
0,1405542787,151046,-11.3268,15.952,-31.5647,37.1361,-8.75952,-0.893683,3.35226,9.42155,2.18087,3.36556,-1.68294,54.9924,5,0,0,0
0,1405542788,152061,-11.77,15.9692,-31.9307,37.5914,-8.72706,-0.891482,3.35439,9.39192,1.44062,2.58905,-1.68138,54.9581,7,0,0,0
0,1405542789,153076,-11.4906,15.7418,-31.6102,37.1354,-8.747,-0.912547,3.33271,9.40477,1.81581,2.32487,-1.69972,54.9633,5,0,0,0
0,1405542790,154084,-11.5323,16.0174,-31.1979,36.9169,-8.7487,-0.891948,3.32208,9.40061,1.13864,3.64793,-1.42269,54.9175,4,0,0,0
0,1405542791,155090,-11.5363,15.7428,-31.4483,37.0124,-8.76313,-0.863538,3.33462,9.41583,1.64429,2.23285,0.0864357,54.9522,5,0,0,0
0,1405542792,156102,-11.7989,15.9306,-31.352,37.0937,-8.76394,-0.884548,3.32169,9.41396,2.09347,3.84185,-0.531456,55.0564,7,0,0,0
0,1405542793,157112,-11.8991,16.0239,-31.4952,37.2867,-8.74231,-0.880194,3.33852,9.39939,2.10154,2.96768,-1.87127,54.9953,6,0,0,0
0,1405542794,158116,-11.3469,15.7101,-31.7199,37.1714,-8.75158,-0.891087,3.31737,9.40155,2.59289,2.99962,-1.8229,54.9169,6,0,0,0
0,1405542795,159124,-11.6621,15.7452,-31.6229,37.2011,-8.74259,-0.915863,3.34113,9.40398,0.819751,4.21207,-1.95895,54.9866,6,0,0,0
0,1405542796,160126,-11.334,15.7021,-31.5045,36.9804,-8.73994,-0.913729,3.33102,9.39772,1.5231,3.29781,-1.93778,55.046,7,0,0,0
0,1405542797,161135,-11.5751,15.8065,-31.5851,37.1678,-8.73342,-0.867664,3.35731,9.39665,0.380067,3.3842,-0.924922,54.9622,6,0,0,0
0,1405542798,162136,-11.8042,15.634,-31.7261,37.2868,-8.74204,-0.886431,3.35411,9.40527,2.03032,3.49344,-0.11711,54.9963,7,0,0,0
0,1405542799,163139,-11.9005,15.9865,-31.5946,37.3551,-8.74099,-0.907384,3.27605,9.37874,2.09737,2.64656,-1.0206,54.9487,6,0,0,0
0,1405542800,164148,-11.7251,15.6514,-31.7877,37.3216,-8.74898,-0.890492,3.3258,9.40205,2.26983,4.22917,-1.60569,55.0273,7,0,0,0
0,1405542801,165157,-11.5415,16.2363,-31.4419,37.2211,-8.72339,-0.895016,3.33601,9.3823,1.98353,3.26853,-1.58944,55.047,6,0,0,0
0,1405542802,166167,-11.5182,15.9725,-31.8199,37.4205,-8.69295,-0.97267,3.32197,9.35676,2.44905,3.14746,-0.585628,54.9705,6,0,0,0
0,1405542803,167169,-11.5582,15.8648,-31.4684,37.0884,-8.74897,-1.02831,3.35302,9.42574,1.11866,3.92434,-2.32753,55.035,6,0,0,0
0,1405542804,168174,-11.4025,15.756,-31.6355,37.1359,-8.63478,-0.937292,3.35634,9.31145,1.2444,1.34126,-0.0924802,55.0615,6,0,0,0
0,1405542805,169175,-11.5403,16.2489,-30.8903,36.7616,-8.73093,-0.895145,3.33136,9.38768,2.95215,2.25772,-1.3202,55.0298,6,0,0,0
0,1405542806,170178,-11.4796,15.9508,-31.6411,37.2474,-8.7571,-0.900055,3.30976,9.40486,0.764857,2.88924,-2.26408,55.0586,7,0,0,0
0,1405542807,171186,-11.657,16.2317,-31.4918,37.2973,-8.75342,-0.96121,3.30822,9.40695,1.32532,2.69797,-0.832504,55.1018,7,0,0,0
0,1405542808,172192,-11.396,16.0108,-31.2697,36.9325,-8.73964,-0.895596,3.33628,9.39756,1.04316,3.07047,-1.15846,55.1722,7,0,0,0
0,1405542809,173199,-11.7225,15.7895,-31.3405,36.9993,-8.72572,-0.893941,3.34556,9.38777,2.15718,3.7495,-1.51639,54.9728,6,0,0,0
0,1405542810,174202,-11.3888,16.281,-31.3556,37.1208,-8.73575,-0.900502,3.33862,9.39525,1.09759,3.86685,-2.22654,54.9686,6,0,0,0
0,1405542811,175214,-11.7156,15.7462,-31.5814,37.1831,-8.73953,-0.882626,3.34757,9.40024,1.78611,4.13186,-1.76186,55.0149,7,0,0,0
0,1405542812,176218,-11.3594,15.8479,-31.4502,37.0042,-8.72956,-0.901013,3.30849,9.37886,3.39668,2.87405,-1.72625,55.0852,7,0,0,0
0,1405542813,177221,-11.7929,16.0157,-31.4386,37.2016,-8.73835,-0.844105,3.32591,9.38791,1.23292,2.97907,-1.26513,55.008,7,0,0,0
0,1405542814,178233,-11.4816,15.9695,-31.1736,36.8598,-8.75759,-0.893657,3.34275,9.41637,1.42893,3.71568,-0.176677,55.1298,6,0,0,0
0,1405542815,179240,-11.2511,15.7653,-31.3539,36.8537,-8.73856,-0.947732,3.28831,9.38475,2.78792,3.05039,-1.16229,55.1431,7,0,0,0
0,1405542816,180249,-11.3909,16.2425,-31.1798,36.9561,-8.75145,-0.904036,3.36032,9.4179,1.46374,3.30461,-2.41945,55.106,7,0,0,0
0,1405542817,181255,-11.3239,16.0335,-31.5568,37.1637,-8.75476,-0.88827,3.32176,9.40579,0.522615,2.97907,-1.83127,55.1314,7,0,0,0
0,1405542818,182258,-11.1155,16.0122,-31.4448,36.9962,-8.73812,-0.923824,3.32119,9.39354,1.75152,2.01556,-1.67795,55.0856,8,0,0,0
0,1405542819,183265,-11.7059,16.0911,-31.1719,36.9816,-8.7424,-0.871636,3.33874,9.39875,1.20057,3.46627,-1.86595,55.0728,7,0,0,0
0,1405542820,184266,-11.9284,15.8829,-31.3623,37.1234,-8.75511,-0.87332,3.37964,9.42531,1.92688,3.7176,-1.80848,55.2185,7,0,0,0
0,1405542821,185274,-11.8892,16.0686,-31.567,37.3634,-8.75838,-0.802467,3.34643,9.41019,0.814437,3.00971,-1.90662,55.0844,7,0,0,0
0,1405542822,186275,-12.0143,15.9029,-31.3287,37.1313,-8.68948,-0.875866,3.2893,9.3324,2.57817,2.58544,-2.6006,55.21,6,0,0,0
0,1405542823,187277,-11.2887,16.4935,-31.4417,37.2566,-8.72925,-0.806196,3.34307,9.38221,3.30822,3.26424,-0.938763,55.1607,7,0,0,0
0,1405542824,188279,-12.1184,15.9051,-31.2186,37.0733,-8.77888,-1.12974,3.3392,9.4602,0.544698,3.29503,-0.569363,55.1699,6,0,0,0
0,1405542825,189286,-12.0383,15.4598,-30.7334,36.4481,-8.73983,-0.870043,3.30734,9.3851,0.60228,3.44856,-0.995215,55.2044,6,0,0,0
0,1405542826,190302,-11.4305,15.8847,-31.7944,37.3345,-8.76152,-0.90881,3.31914,9.41312,1.44667,3.81342,-0.481046,55.197,7,0,0,0
0,1405542827,191304,-11.987,15.9348,-31.3004,37.1123,-8.68948,-0.813695,3.32269,9.33859,3.42425,4.69446,-1.9242,55.1382,6,0,0,0
0,1405542828,192312,-11.2822,15.9591,-31.2247,36.837,-8.74542,-0.899351,3.32918,9.40078,2.59573,2.6509,-1.35753,55.198,6,0,0,0
0,1405542829,193317,-11.5649,16.0539,-31.4929,37.1925,-8.74207,-0.890705,3.31299,9.39112,1.70159,3.29195,-0.122451,55.1971,5,0,0,0
0,1405542830,194320,-11.507,15.6803,-31.5841,37.0923,-8.76244,-0.891336,3.33629,9.41836,1.3618,2.3187,-1.56193,55.1974,6,0,0,0
0,1405542831,195324,-11.7975,16.1045,-31.7244,37.483,-8.7463,-0.907394,3.34421,9.4077,2.15393,2.52454,-0.0653976,55.1937,6,0,0,0
0,1405542832,196329,-11.5943,16.3098,-31.2794,37.1327,-8.75018,-0.883443,3.35822,9.41402,1.61565,2.52352,-1.61984,55.2258,6,0,0,0
0,1405542833,197337,-11.5136,16.3681,-31.3519,37.1943,-8.74786,-0.94749,3.35327,9.41633,1.87136,2.77927,-0.761183,55.3012,6,0,0,0
0,1405542834,198344,-11.8116,15.5794,-31.2573,36.868,-8.79728,-0.882814,3.30562,9.43921,2.74924,2.25563,-0.943754,55.2184,6,0,0,0
0,1405542835,199351,-11.367,16.295,-31.3618,37.1254,-8.76186,-1.00594,3.30318,9.4177,1.29727,3.0292,-0.851042,55.1678,7,0,0,0
0,1405542836,200356,-11.2642,16.1032,-31.2399,36.907,-8.80573,-0.958967,3.2635,9.43985,1.17171,3.39122,-1.87061,55.2202,6,0,0,0
0,1405542837,201360,-11.7959,15.8118,-31.5044,37.171,-8.74328,-0.868281,3.31561,9.39107,2.3896,3.0661,-1.42971,55.3276,7,0,0,0
0,1405542838,202370,-11.4537,16.0284,-31.1551,36.861,-8.71098,-1.13232,3.27303,9.37422,1.71974,4.35374,-1.30555,55.2368,6,0,0,0
0,1405542839,203380,-11.6767,16.3453,-31.6607,37.4955,-8.74976,-0.805066,3.3287,9.3961,3.54608,3.12954,-1.17371,55.1749,6,0,0,0
0,1405542840,204389,-11.7246,15.8072,-31.1943,36.8838,-8.73946,-0.889511,3.31733,9.3901,1.7121,2.73396,-1.45687,55.2907,7,0,0,0
0,1405542841,205395,-11.2058,16.2984,-31.1689,36.9149,-8.73922,-0.913991,3.26378,9.37345,2.42127,1.89605,-1.02437,55.3435,5,0,0,0
0,1405542842,206396,-11.457,15.8134,-31.7191,37.2482,-8.65892,-0.779806,3.45788,9.35638,2.20415,4.19846,-2.53664,55.3237,6,0,0,0
0,1405542843,207402,-11.4986,15.8947,-31.3261,36.9619,-8.64313,-0.60946,3.41423,9.313,1.084,3.18566,-1.50361,55.3174,7,0,0,0
0,1405542844,208409,-11.9882,16.0366,-31.3484,37.1969,-8.74771,-0.897665,3.29836,9.39188,1.46202,3.05581,-1.7957,55.2389,7,0,0,0
0,1405542845,209412,-11.7923,16.0968,-31.3071,37.1255,-8.73249,-0.911324,3.34013,9.39379,1.03341,2.88099,-1.18444,55.3164,7,0,0,0
0,1405542846,210414,-11.4116,15.9887,-31.2566,36.9166,-8.74406,-0.916474,3.31679,9.39679,1.96602,3.83357,-1.78981,55.2465,6,0,0,0
0,1405542847,211421,-11.6382,15.8711,-31.3904,37.0499,-8.74061,-0.826865,3.33783,9.39272,0.745995,3.65541,-1.86564,55.3656,6,0,0,0
0,1405542848,212432,-11.4247,15.8476,-31.5218,37.0849,-8.73815,-0.872468,3.34766,9.39805,2.27307,3.46728,-0.315172,55.3061,6,0,0,0
0,1405542849,213433,-11.2447,15.8928,-31.4622,36.9986,-8.74999,-0.896138,3.33108,9.4054,1.83677,2.2948,-0.0372531,55.3257,6,0,0,0
0,1405542850,214441,-11.3523,15.8514,-31.2757,36.8553,-8.74748,-0.902064,3.32067,9.39995,2.72435,2.99539,-1.38148,55.3002,7,0,0,0
0,1405542851,215445,-11.6326,15.9762,-31.0436,36.8003,-8.73701,-0.929451,3.33067,9.39641,1.49034,3.03142,-1.81996,55.2783,7,0,0,0
0,1405542852,216446,-11.3732,16.3214,-31.1715,36.9784,-8.74858,-0.903332,3.32403,9.40227,0.680764,3.33131,-0.487446,55.351,6,0,0,0
0,1405542853,217452,-11.4538,15.8167,-31.7672,37.2895,-8.75077,-0.857811,3.32736,9.40123,2.56985,3.79537,-1.73985,55.4359,7,0,0,0
0,1405542854,218455,-11.4978,16.2066,-31.4381,37.1914,-8.75672,-0.867175,3.32871,9.4081,1.39406,3.63225,-1.25764,55.3864,6,0,0,0
0,1405542855,219460,-11.8626,15.496,-31.8669,37.3677,-8.75141,-0.875835,3.33303,9.4055,0.408297,4.06672,-0.277214,55.3097,7,0,0,0
0,1405542856,220468,-11.3061,16.0028,-31.7113,37.2763,-8.74728,-0.896803,3.33496,9.40432,2.78669,3.16066,-2.28569,55.3733,7,0,0,0
0,1405542857,221478,-11.3646,15.742,-31.6378,37.1203,-8.75895,-0.892626,3.34185,9.41722,1.71623,2.54094,-1.56638,55.3633,7,0,0,0
0,1405542858,222483,-11.4883,15.664,-31.6788,37.1603,-8.74081,-0.881221,3.34728,9.40121,1.76626,3.31112,-2.08079,55.3868,6,0,0,0
0,1405542859,223484,-11.529,15.6221,-31.309,36.8404,-8.74447,-0.919686,3.32647,9.40091,1.48475,2.16149,-2.46794,55.4294,6,0,0,0
0,1405542860,224488,-11.606,16.312,-31.0204,36.9195,-8.75314,-0.889497,3.31443,9.40182,2.57133,2.83607,-1.70736,55.3305,7,0,0,0
0,1405542861,225494,-11.629,15.8053,-31.3634,36.9961,-8.72123,-0.903347,3.34057,9.38271,1.61113,2.86588,-1.28488,55.3924,7,0,0,0
0,1405542862,226500,-11.4161,16.5293,-31.2075,37.1141,-8.75382,-0.893939,3.3116,9.40187,1.47196,3.53225,-1.55806,55.3806,7,0,0,0
0,1405542863,227517,-11.7073,16.1615,-31.4388,37.2378,-8.73169,-0.88394,3.35156,9.3945,2.24864,3.20401,-2.93631,55.4474,7,0,0,0
0,1405542864,228519,-11.3141,15.8435,-31.4667,37.0025,-8.73296,-0.876323,3.31094,9.38056,0.44957,1.96901,-0.846495,55.4312,6,0,0,0
0,1405542865,229521,-9.75053,25.307,-32.2158,42.1115,-8.75508,-0.849208,3.34855,9.41198,2.19036,3.76339,-0.335622,55.4669,7,0,0,0
0,1405542866,230527,-9.04831,6.75419,-28.4736,30.6306,-8.64061,-0.836898,3.56758,9.38553,1.17042,5.53995,0.276688,55.3803,6,0,0,0
0,1405542867,231535,-8.97737,26.6739,-31.7543,42.4314,-8.77316,-0.758726,3.44025,9.45407,-0.915883,4.23259,0.10943,55.4386,7,0,0,0
0,1405542868,232549,-11.4073,12.7812,-29.7022,34.2885,-8.65925,-0.833527,3.40532,9.34203,-1.29545,3.24057,-0.234666,55.4312,7,0,0,0
0,1405542869,233552,-9.721,20.9483,-30.0569,37.9045,-8.59031,-0.696262,3.49861,9.30153,-0.742727,3.76206,1.37418,55.3572,7,0,0,0
0,1405542870,234559,-11.5195,19.3507,-29.4717,37.0908,-8.79343,-0.661153,3.35571,9.43516,-4.95786,4.21231,2.07839,55.4665,7,0,0,0
0,1405542871,235565,-10.5711,25.5529,-28.7777,39.9106,-8.72244,-0.818611,3.51127,9.43823,-3.39244,2.56351,2.88427,55.4917,6,0,0,0
0,1405542872,236573,-11.5332,24.1015,-26.5435,37.6624,-8.88921,-0.555318,3.59477,9.60462,-5.95999,1.35621,3.1293,55.5108,7,0,0,0
0,1405542873,237578,-10.4692,19.1492,-23.8588,32.3348,-8.27687,-0.407987,3.48872,8.99134,-5.26414,0.35156,2.41358,55.4154,7,0,0,0
0,1405542874,238586,-11.2684,25.4825,-24.1765,36.8896,-8.41101,-0.845548,3.25828,9.05961,-2.45138,1.36711,1.896,55.5108,6,0,0,0
0,1405542875,239595,-13.5777,20.8811,-22.0826,33.2868,-8.78568,-0.658828,3.44649,9.46047,-5.36656,4.34444,2.18964,55.4278,7,0,0,0
0,1405542876,240603,-10.9372,26.2358,-20.5373,35.0674,-8.75886,-0.697411,3.38367,9.41558,-5.63251,1.7066,0.776306,55.4897,5,0,0,0
0,1405542877,241610,-12.6145,24.0838,-20.0448,33.7779,-9.00238,-0.73473,3.40258,9.65195,-1.30729,2.49701,0.413821,55.4492,7,0,0,0
0,1405542878,242617,-11.5646,17.6877,-18.4626,28.0618,-8.96319,-0.289736,3.90087,9.77954,2.2973,1.79467,2.35311,55.5059,6,0,0,0
0,1405542879,243625,-10.5207,12.6086,-15.1293,22.3284,-8.7234,-0.648718,3.73662,9.51214,-3.3589,2.82055,0.102595,55.4718,5,0,0,0
0,1405542880,244629,-9.0004,22.5096,-15.6491,28.8545,-7.96877,-0.64783,4.14952,9.00775,-1.31859,5.31271,-2.31724,55.4781,6,0,0,0
0,1405542881,245630,-9.80054,32.925,-17.3953,38.5059,-7.85258,-0.886476,4.04399,8.87708,4.4204,10.2247,-2.49703,55.4429,6,0,0,0
0,1405542882,246636,-6.59908,36.5618,-19.1501,41.7976,-7.55998,-0.676128,3.39938,8.31663,7.43576,-0.0407555,0.19914,55.5353,6,0,0,0
0,1405542883,247638,-11.3786,14.387,-17.856,25.5987,-8.8909,-0.567094,3.72318,9.65566,4.5553,6.34479,-4.37638,55.5055,7,0,0,0
0,1405542884,248647,-6.53534,22.7791,-18.3662,29.9819,-8.7305,-0.90636,3.61623,9.49317,5.90608,7.59065,-2.14826,55.5667,6,0,0,0
0,1405542885,249650,-12.8455,17.6171,-20.7537,30.1013,-8.08984,-1.35018,3.05321,8.7516,9.79789,3.02779,-1.63786,55.5115,7,0,0,0
0,1405542886,250653,-12.8699,20.3786,-22.8974,33.2447,-8.69233,-1.00194,3.30193,9.35217,5.65892,2.57199,-3.75889,55.5593,5,0,0,0
0,1405542887,251660,-11.7894,16.8319,-22.1376,30.2055,-8.75897,-0.724001,3.3365,9.40084,2.42523,4.53811,-0.871659,55.546,6,0,0,0
0,1405542888,252664,-12.2656,18.5818,-23.3178,32.2405,-8.30651,-0.923261,2.95431,8.86445,4.96558,1.82378,0.011796,55.536,7,0,0,0
0,1405542889,253669,-14.8563,17.7767,-24.8722,33.9904,-8.89364,-1.09847,3.17619,9.50745,6.63103,5.29045,-2.91855,55.5973,7,0,0,0
0,1405542890,254681,-14.6589,18.2584,-24.5083,33.8956,-8.75836,-0.440218,3.22403,9.34329,-2.50227,0.488842,-0.523709,55.6517,7,0,0,0
0,1405542891,255692,-13.5725,18.3115,-25.9918,34.5702,-9.49815,-0.929235,3.52298,10.173,7.18909,2.35209,-5.77427,55.474,6,0,0,0
0,1405542892,256698,-9.06168,23.083,-26.3044,36.1506,-8.79237,-0.557805,3.53338,9.49219,7.86676,0.706008,-6.08174,55.5278,7,0,0,0
0,1405542893,257703,-6.50659,20.0016,-24.8739,32.5747,-8.43269,-1.01502,3.61124,9.22939,7.47938,0.714139,-6.22304,55.5473,7,0,0,0
0,1405542894,258708,-3.891,25.8878,-26.9454,37.5682,-8.91833,-0.710042,3.98548,9.79412,5.6381,0.106407,-6.63247,55.46,7,0,0,0
0,1405542895,259717,-2.16716,17.9492,-25.977,31.6493,-8.19937,-0.702665,3.48399,8.93653,3.12685,2.28073,-2.41111,55.4866,6,0,0,0
0,1405542896,260721,-2.14389,18.6695,-26.6622,32.6194,-8.07063,-1.21174,3.4195,8.84853,1.23063,2.23419,0.180678,55.6139,6,0,0,0
0,1405542897,261731,-4.59662,26.1027,-29.9407,39.9866,-9.22439,-0.598551,3.86342,10.0187,4.37766,3.65561,-3.41632,55.5424,7,0,0,0
0,1405542898,262740,-4.43445,11.6589,-26.3239,29.1298,-8.6301,-0.72865,3.56522,9.36592,1.61249,4.62933,-2.19705,55.5505,6,0,0,0
0,1405542899,263749,-4.58358,24.2015,-28.5128,37.6789,-8.72582,-0.714977,3.42693,9.40186,4.8321,-0.283131,0.695907,55.5978,7,0,0,0
0,1405542900,264752,-4.50339,18.3519,-27.9344,33.7254,-8.29211,-1.29446,3.07689,8.93879,1.70595,4.96784,-2.25066,55.5362,7,0,0,0
0,1405542901,265761,-5.40976,10.4581,-25.9526,28.4987,-8.28579,-0.68107,3.45801,9.00422,1.33362,-2.18985,-0.240399,55.6153,6,0,0,0
0,1405542902,266762,-3.06138,9.75311,-25.9854,27.9237,-8.78414,-0.54928,3.84106,9.60295,1.69548,7.79528,-2.31957,55.626,7,0,0,0
0,1405542903,267768,1.1169,14.594,-25.5363,29.4335,-7.91814,-0.333017,3.38955,8.61957,2.99296,2.06312,-3.80496,55.5727,6,0,0,0
0,1405542904,268771,-4.64525,21.7726,-26.7136,34.7742,-8.76695,-0.625783,3.89083,9.61195,2.09997,1.65684,-3.60101,55.5736,7,0,0,0
0,1405542905,269780,1.51528,17.295,-26.1979,31.4284,-8.52143,-0.67061,3.80504,9.35643,5.01272,1.80573,2.53136,55.6253,7,0,0,0
0,1405542906,270786,0.155978,15.3786,-25.5862,29.8526,-7.94442,-0.384113,3.38834,8.64536,1.74774,5.53636,-1.95508,55.5752,6,0,0,0
0,1405542907,271787,-1.71086,19.3695,-29.3725,35.2257,-8.8205,-0.572599,3.65855,9.5663,1.89723,3.13669,-3.01422,55.6457,6,0,0,0
0,1405542908,272794,-8.82483,14.9991,-31.7081,36.1698,-8.80087,-0.558946,3.33545,9.42831,3.28843,0.311534,-3.58081,55.5762,6,0,0,0
0,1405542909,273804,-7.88346,17.1249,-32.3477,37.4404,-8.68449,-0.418278,3.25795,9.28491,3.4086,3.30483,0.64676,55.7443,6,0,0,0
0,1405542910,274817,-9.60804,15.5101,-32.1356,36.9537,-8.70638,-0.642664,3.18603,9.29327,1.08249,4.47283,-1.7185,55.5484,6,0,0,0
0,1405542911,275820,-13.9179,14.0731,-34.4137,39.6997,-8.27643,0.112937,3.32241,8.91911,3.24041,3.06498,0.0275813,55.7028,5,0,0,0
0,1405542912,276831,-10.9051,7.81343,-33.4635,36.0524,-8.51987,0.00111741,3.17333,9.09165,2.52706,2.80594,-1.2797,55.5892,6,0,0,0
0,1405542913,277835,-1.56907,22.8523,-30.418,38.0781,-9.69018,-0.585452,1.52029,9.82617,1.02929,6.34046,-2.95211,55.7293,5,0,0,0
0,1405542914,278842,-2.7649,27.2841,-31.8177,42.0052,-9.50731,0.203651,2.51665,9.83687,0.544018,2.8459,-1.06281,55.6181,6,0,0,0
0,1405542915,279846,-9.76057,12.5436,-31.196,35.0114,-8.73626,-0.243457,3.26213,9.32861,1.56956,2.3343,-2.42062,55.685,6,0,0,0
0,1405542916,280868,-9.8792,14.7616,-31.6833,36.3226,-8.71997,-0.0814307,3.43781,9.37352,1.57616,1.80272,-1.99185,55.7637,5,0,0,0
0,1405542917,281877,-7.19416,17.4262,-31.4482,36.6663,-8.67928,-0.0561547,3.48558,9.3532,1.34823,4.22209,-1.72005,55.7804,6,0,0,0
0,1405542918,282882,-7.53419,1.13838,-27.654,28.6846,-8.76919,-0.110946,3.63069,9.49173,3.90984,5.16197,-0.672504,55.7267,6,0,0,0
0,1405542919,283888,-9.80997,13.509,-31.3322,35.5026,-8.691,-0.0989082,3.66222,9.4316,2.04967,2.39494,-2.80183,55.7399,7,0,0,0
0,1405542920,284894,-3.41956,26.4365,-32.5985,42.1099,-8.54425,0.0438571,3.68033,9.30328,1.57446,3.3763,-1.03724,55.7925,7,0,0,0
0,1405542921,285902,-5.4078,6.72277,-29.3802,30.6209,-8.31796,-0.30121,3.76152,9.13391,1.28612,4.90392,-1.2997,55.6367,7,0,0,0
0,1405542922,286906,-6.65688,19.5256,-31.8521,37.949,-8.56798,0.0546299,3.83953,9.38911,1.25112,5.32912,-1.65151,55.6779,7,0,0,0
0,1405542923,287911,-4.34203,20.8769,-31.6586,38.1703,-7.91681,-0.123737,3.52249,8.66597,1.86432,1.64523,-0.749125,55.6711,6,0,0,0
0,1405542924,288914,-4.20505,18.4913,-30.9202,36.2722,-9.26617,-0.458631,3.46607,9.90383,4.84429,4.13737,-3.27232,55.7523,6,0,0,0
0,1405542925,289917,-0.634169,19.0623,-32.3944,37.5922,-8.06999,0.172039,3.56725,8.82495,22.606,6.76947,-6.60502,55.7648,6,0,0,0
0,1405542926,290923,3.79413,18.9484,-34.4343,39.4861,-7.70336,-0.626138,3.52743,8.49568,25.9496,-1.99015,-11.8684,55.7327,6,0,0,0
0,1405542927,291925,10.8701,22.9716,-34.8486,43.131,-9.18832,-1.2374,3.44699,9.89132,27.313,7.90334,-18.3249,55.7787,5,0,0,0
0,1405542928,292931,15.6278,18.7726,-37.0162,44.3491,-8.49854,-2.18506,3.47764,9.43894,30.2112,5.24082,-16.38,55.8418,5,0,0,0
0,1405542930,294193,15.0652,21.256,-39.2924,47.1452,-8.8671,-1.85242,3.4193,9.68238,24.7482,6.3978,-13.9498,55.8195,1,0,0,0
0,1405542931,295199,20.5426,17.6112,-37.0178,45.8527,-7.4497,-1.08446,2.69378,7.99566,15.4844,7.546,-6.05182,55.7883,5,0,0,0
0,1405542932,296200,17.0406,14.5705,-38.3503,44.4233,-9.14398,-1.1821,3.13147,9.73734,9.61515,4.24006,-0.933885,55.8664,7,0,0,0
0,1405542933,297210,15.3917,12.8226,-39.6822,44.4522,-8.82523,-1.25024,2.67209,9.30526,9.41728,4.05485,-1.98097,55.7933,6,0,0,0
0,1405542934,298216,16.4732,7.95662,-39.623,43.6423,-9.20894,-0.921324,2.83851,9.68042,7.74855,2.81435,-2.73368,55.831,7,0,0,0
0,1405542935,299223,21.6553,14.4549,-36.6154,44.9287,-9.05849,-1.08795,3.19959,9.66836,9.29968,1.39725,-4.13674,55.848,6,0,0,0
0,1405542936,300226,28.34,12.0275,-38.0385,48.9361,-8.14943,-0.980792,2.95279,8.7232,7.51913,3.77868,-9.89132,55.7798,7,0,0,0
0,1405542937,301230,31.7706,20.5365,-37.0605,52.9585,-8.96879,-1.34197,3.31816,9.65662,8.52386,-4.18179,-5.30836,55.9525,7,0,0,0
0,1405542938,302235,35.7009,20.0976,-30.1001,50.8378,-10.395,-0.810616,4.09167,11.2007,7.07179,-4.33224,-1.94597,55.7525,6,0,0,0
0,1405542939,303240,45.1422,12.615,-33.7318,57.7476,-9.23845,-0.288828,3.55723,9.90385,-0.401877,3.36625,-3.61528,55.7955,3,0,0,0
0,1405542940,304246,40.553,14.1246,-24.4304,49.4054,-8.33383,-0.8374,3.05616,8.91595,2.4983,2.72129,-5.29009,55.9457,6,0,0,0
0,1405542941,305250,48.8186,27.6401,-26.3555,61.9826,-8.64368,-0.582628,3.48616,9.33842,2.14673,6.89983,0.532153,55.7853,6,0,0,0
0,1405542942,306256,42.4807,36.9111,-43.5596,71.1652,-8.70723,-0.395539,3.63187,9.44261,1.6725,3.81918,-1.61484,55.8191,6,0,0,0
0,1405542943,307273,34.0057,24.4333,-24.827,48.6801,-8.53382,-0.443914,3.42082,9.20462,0.597704,2.17535,-2.56675,55.849,5,0,0,0
0,1405542944,308284,32.1834,27.9991,-35.4922,55.4925,-9.3819,-0.68604,3.24682,9.95151,3.49009,0.860333,-1.36049,55.9479,7,0,0,0
0,1405542945,309301,46.9212,14.6694,-35.4525,60.6108,-8.98144,-0.996653,3.58243,9.72077,3.74373,1.19974,-1.32847,55.8364,7,0,0,0
0,1405542946,310307,37.9161,12.3494,-32.3941,51.3762,-8.40136,-0.896798,3.12341,9.00793,4.66448,4.1757,-3.08298,55.8869,6,0,0,0
0,1405542947,311311,36.648,8.55132,-28.9363,47.4712,-9.12526,-0.753742,3.6593,9.86047,3.4536,-0.80842,-5.0606,55.7573,7,0,0,0
0,1405542948,312319,51.3219,26.27,-31.5617,65.7282,-11.3181,-0.89502,4.71297,12.2928,5.31021,-1.3333,1.23821,55.9766,6,0,0,0
0,1405542949,313322,57.2767,24.0321,-24.4952,66.7696,-8.44644,-0.547873,3.93022,9.33215,0.392949,2.92827,-4.08798,55.8622,7,0,0,0
0,1405542950,314337,54.4472,19.8307,-23.9833,62.7132,-7.824,-0.884231,3.79633,8.74122,4.92658,2.12174,-0.144079,55.9203,6,0,0,0
0,1405542951,315344,49.0349,17.0789,-24.092,57.241,-8.60631,-0.677365,4.24197,9.61883,-0.679257,2.57805,-5.70496,55.8675,6,0,0,0
0,1405542952,316353,51.3113,14.6146,-23.461,58.2825,-8.24924,-0.346423,4.09945,9.21822,3.01115,2.43446,-1.55564,55.8457,6,0,0,0
0,1405542953,317362,44.8628,8.54083,-24.3242,51.7425,-8.98836,-0.571256,4.18417,9.93098,4.40252,2.41841,-3.49327,55.894,6,0,0,0
0,1405542954,318368,44.5652,19.5351,-27.3626,55.8246,-8.38745,-0.57855,4.06072,9.33668,5.05751,5.25841,-2.04178,55.861,7,0,0,0
0,1405542955,319382,43.8788,27.1533,-29.8386,59.607,-8.30477,-0.650308,3.92452,9.20837,0.623943,4.0432,-4.73086,56.0101,8,0,0,0
0,1405542956,320386,44.6734,17.6175,-27.5958,55.3861,-8.61412,-0.667563,3.83494,9.4528,6.69989,6.79986,1.30168,56.0194,6,0,0,0
0,1405542957,321392,38.3805,22.1579,-31.1068,54.1449,-9.56937,-0.857792,3.8826,10.3626,9.34994,5.10695,-2.28504,55.814,7,0,0,0
0,1405542958,322397,38.3812,13.5516,-28.168,49.4995,-8.52193,-0.334326,3.73663,9.31115,-0.128736,9.02042,-19.1976,56.0545,5,0,0,0
0,1405542959,323402,40.5927,23.7597,-27.8578,54.6658,-8.14122,-0.175074,3.08081,8.70641,5.70865,-1.4409,-3.19445,55.964,7,0,0,0
0,1405542960,324404,35.9646,26.7223,-30.5204,54.2128,-7.81519,1.01219,3.33244,8.5561,-3.9518,3.16258,2.88484,56.0537,7,0,0,0
0,1405542961,325409,38.3697,27.004,-33.4004,57.5937,-8.35228,0.449831,3.5474,9.08554,-4.54309,1.1318,4.20029,56.0089,6,0,0,0
0,1405542962,326415,40.1046,20.2313,-33.4905,56.0294,-8.31587,-0.399823,3.1323,8.89522,1.95391,6.24603,6.80514,55.9434,7,0,0,0
0,1405542963,327420,34.8206,10.6752,-29.9728,47.1678,-8.38216,-0.907481,3.55046,9.14822,11.2422,1.89551,-9.90491,56.0428,7,0,0,0
0,1405542964,328431,31.7282,13.0476,-30.4762,45.8881,-7.99618,-1.21386,3.21972,8.7051,16.8324,-0.443225,-10.7097,56.0781,7,0,0,0
0,1405542965,329437,34.2399,20.6567,-27.1728,48.347,-9.47492,-1.83348,2.8511,10.063,30.154,9.91485,-11.7681,56.0947,7,0,0,0
0,1405542966,330441,37.1251,19.3761,-18.2947,45.6991,-9.30207,-0.768903,3.38941,9.93015,26.4384,2.91597,-12.1004,56.1902,6,0,0,0
0,1405542967,331442,33.6405,27.3811,-15.6719,46.1195,-8.59878,-0.901292,3.11467,9.18981,24.3868,4.28517,-15.093,56.0149,7,0,0,0
0,1405542968,332451,31.1363,29.3529,-11.3648,44.2744,-9.06948,-1.38092,3.07936,9.67703,28.6607,5.74732,-13.3741,56.1257,6,0,0,0
0,1405542969,333453,28.1929,29.4814,-6.55067,41.3147,-8.18186,-0.998443,3.38879,8.91199,25.2066,2.91152,-12.1163,56.0332,7,0,0,0
0,1405542970,334458,23.3111,27.2432,-5.30462,36.2455,-8.68899,-0.484006,3.36157,9.32914,9.67807,4.99996,-6.76758,56.0788,6,0,0,0
0,1405542971,335462,24.2729,33.0391,-3.7816,41.1711,-9.46844,-0.0303558,3.1764,9.98708,-8.07364,1.20169,-0.479108,56.1402,4,0,0,0
0,1405542972,336468,28.04,32.7449,-6.34563,43.5745,-9.48135,1.1077,3.59944,10.2019,-25.8457,5.05225,14.0181,56.1341,8,0,0,0
0,1405542973,337470,32.0109,22.116,-9.901,40.1478,-8.97325,1.52268,3.39847,9.71532,-32.3084,3.98166,14.373,56.1585,7,0,0,0
0,1405542974,338476,37.1613,28.5877,-18.0287,50.232,-8.96254,2.3006,3.44112,9.87224,-35.3015,1.40986,14.355,56.0901,7,0,0,0
0,1405542975,339479,36.0113,19.2452,-25.1046,47.9316,-9.38377,1.82005,3.53513,10.1914,-29.6031,-1.0145,10.5001,56.1727,6,0,0,0
0,1405542976,340483,39.2502,15.9249,-28.1214,50.8429,-8.38671,1.20012,3.41658,9.13511,-26.6716,1.38927,10.4863,56.2561,7,0,0,0
0,1405542977,341488,32.1324,15.5674,-33.2046,48.7584,-9.50955,0.415286,3.54939,10.1588,-22.7193,-4.80814,9.21732,56.1437,7,0,0,0
0,1405542978,342499,27.5853,4.72217,-35.131,44.9159,-8.81174,0.341371,3.71842,9.57026,-14.89,4.53232,0.703594,56.2028,7,0,0,0
0,1405542979,343506,31.0418,26.4275,-39.0403,56.446,-7.90106,-0.193049,3.80956,8.77364,-3.25784,4.38335,2.8874,56.233,6,0,0,0
0,1405542980,344514,33.4903,32.0168,-39.9577,61.1825,-8.72657,-0.309014,3.60949,9.44865,-1.07718,2.95754,1.36468,56.2595,7,0,0,0
0,1405542981,345521,34.5283,23.2596,-37.6904,56.1585,-7.46068,-0.678685,3.69896,8.35492,2.01536,1.90654,-1.55739,56.3439,7,0,0,0
0,1405542982,346527,31.4492,4.16865,-34.0593,46.5453,-8.72315,-0.684528,3.98595,9.61508,13.8048,4.26519,-7.87828,56.2401,6,0,0,0
0,1405542983,347536,32.8644,3.27416,-32.9498,46.6528,-9.34387,-1.46452,3.57623,10.1115,16.4948,3.63565,-13.4437,56.1035,7,0,0,0
0,1405542984,348543,42.2068,22.0052,-32.5984,57.6914,-7.71175,-0.682364,3.35605,8.43799,18.75,6.00463,-13.349,56.2507,7,0,0,0
0,1405542985,349544,33.6774,22.2297,-34.6046,53.1583,-9.5984,-1.03262,3.65207,10.3215,22.8381,3.41718,-11.8155,56.1875,6,0,0,0
0,1405542986,350551,32.7403,13.7255,-29.1418,45.93,-8.34754,-1.05622,3.34636,9.05512,20.5492,4.64201,-10.3418,56.1764,7,0,0,0
0,1405542987,351553,31.6654,14.7473,-27.5994,44.5186,-8.7858,-0.60165,2.96878,9.29332,14.3493,3.93885,-5.63682,56.2532,6,0,0,0
0,1405542988,352555,33.6941,18.787,-25.2657,46.1151,-8.53111,-0.34032,3.15979,9.10384,8.89892,4.39653,-5.30858,56.182,6,0,0,0
0,1405542989,353562,34.1296,18.3951,-23.6174,45.3981,-8.79338,-0.560237,3.24883,9.39107,8.53776,3.70743,-2.18983,56.211,6,0,0,0
0,1405542990,354563,34.4303,18.1068,-20.5891,44.0138,-9.00355,-0.492758,3.58085,9.70202,16.7516,5.32181,-7.0495,56.278,6,0,0,0
0,1405542991,355566,34.5576,21.2835,-17.7196,44.2855,-8.70217,-0.497701,3.29262,9.31756,12.5303,3.65034,-7.07747,56.2999,6,0,0,0
0,1405542992,356580,32.7913,22.7431,-16.7548,43.2809,-8.92521,-0.249857,3.11656,9.457,6.83107,2.92386,-5.57559,56.2375,6,0,0,0
0,1405542993,357589,31.7865,19.994,-15.9811,40.8111,-8.83111,-0.169551,3.11633,9.36636,5.69013,1.9736,-3.38328,56.3821,6,0,0,0
0,1405542994,358592,31.3747,19.5946,-14.6054,39.7698,-9.0192,-0.227037,3.01109,9.51127,3.35045,3.36459,-3.0403,56.1958,5,0,0,0
0,1405542995,359597,31.7513,24.2772,-15.1954,42.7601,-8.79829,-0.236196,3.26552,9.38772,2.39726,3.35143,-1.51363,56.2497,6,0,0,0
0,1405542996,360610,32.3171,25.6356,-15.2259,43.9706,-8.66263,-0.230015,3.46964,9.33448,0.559033,2.86257,-1.51625,56.3558,6,0,0,0
0,1405542997,361616,32.0232,25.6562,-14.7714,43.611,-8.81957,-0.213261,3.3464,9.4355,1.43151,3.83156,-1.92492,56.2986,7,0,0,0
0,1405542998,362617,31.6451,23.4961,-15.5172,42.3587,-8.70986,-0.190799,3.45923,9.3736,1.05024,2.63844,-1.96142,56.2858,7,0,0,0
0,1405542999,363626,31.4652,23.2927,-15.3329,42.0441,-8.70176,-0.191035,3.45904,9.36601,1.90232,3.12557,-1.66904,56.3511,7,0,0,0
0,1405543000,364627,31.609,23.2898,-15.6396,42.2627,-8.72819,-0.205304,3.46787,9.39413,1.93347,2.04974,-0.651211,56.4211,7,0,0,0
0,1405543001,365638,31.5706,23.3701,-15.2273,42.1276,-8.71799,-0.21358,3.44174,9.37521,1.20486,3.18785,-1.1611,56.4644,6,0,0,0
0,1405543002,366640,31.3908,23.3707,-15.3172,42.0261,-8.72344,-0.199272,3.47702,9.39297,2.64061,3.16308,-0.255217,56.266,7,0,0,0
0,1405543003,367644,31.5112,23.34,-14.976,41.976,-8.70776,-0.198313,3.47127,9.37625,0.484966,2.56072,-2.41481,56.4014,8,0,0,0
0,1405543004,368646,31.4986,23.1553,-15.4245,42.0267,-8.70758,-0.220051,3.43372,9.36273,0.60436,4.67902,-1.64756,56.3658,7,0,0,0
0,1405543005,369653,31.4631,23.0065,-15.3329,41.8846,-8.73405,-0.192644,3.44712,9.39167,1.08408,3.64013,-2.01477,56.431,7,0,0,0
0,1405543006,370664,31.5383,23.1979,-15.2477,42.0155,-8.69461,-0.212212,3.44552,9.35483,2.25394,2.61693,-1.66473,56.4556,7,0,0,0
0,1405543007,371672,31.5157,23.3404,-15.3367,42.1097,-8.71778,-0.204635,3.41186,9.36388,0.76594,3.58306,-1.35933,56.5688,8,0,0,0
0,1405543008,372678,31.3242,23.5704,-14.8969,41.9367,-8.73204,-0.192896,3.43732,9.38621,1.95177,3.46162,-1.69864,56.4388,8,0,0,0
0,1405543009,373682,31.4427,23.5235,-15.2074,42.1101,-8.73047,-0.198546,3.455,9.39135,0.716538,2.26578,-1.44643,56.4322,6,0,0,0
0,1405543010,374687,32.013,23.5315,-15.4513,42.6299,-8.70119,-0.192478,3.47563,9.37165,2.22318,3.90268,-0.596246,56.4215,7,0,0,0
0,1405543011,375692,31.5156,23.4573,-15.3558,42.1815,-8.70136,-0.203369,3.44523,9.3608,1.881,3.29419,-1.36546,56.4965,6,0,0,0
0,1405543012,376700,31.5237,23.2641,-15.2923,42.0573,-8.69973,-0.228121,3.41654,9.34934,3.25621,3.77953,-1.77487,56.5254,7,0,0,0
0,1405543013,377701,31.4902,23.0578,-15.3107,41.9251,-8.7189,-0.217554,3.45598,9.38138,1.3825,3.78341,-0.550781,56.4278,7,0,0,0
0,1405543014,378706,31.7204,23.0444,-15.3074,42.0897,-8.72708,-0.185254,3.45395,9.38755,2.01003,3.41516,-2.43022,56.4471,7,0,0,0
0,1405543015,379714,31.4509,23.581,-15.2484,42.1632,-8.71872,-0.219523,3.42689,9.37058,2.80603,2.31649,-1.35192,56.4432,6,0,0,0
0,1405543016,380718,31.5776,23.1434,-15.4141,42.0756,-8.72783,-0.203208,3.44751,9.38625,2.2546,2.48708,-1.41291,56.5114,5,0,0,0
0,1405543017,381724,35.8214,34.1073,-14.9757,51.6794,-8.57914,-0.27711,3.6903,9.34327,2.45307,4.23984,-1.46082,56.4883,8,0,0,0
0,1405543018,382734,39.3392,39.6936,-14.2344,57.6695,-8.32164,-0.165202,4.19334,9.31993,1.1351,2.94972,-1.70286,56.6087,6,0,0,0
0,1405543019,383737,39.5762,35.0483,-12.3247,54.2822,-8.5806,-0.0800294,3.94614,9.44485,3.09748,2.48219,-1.33211,56.4445,6,0,0,0
0,1405543020,384739,40.0921,22.511,-9.2849,46.9076,-8.06683,-0.525338,3.98492,9.01273,4.3691,3.41182,-1.50908,56.538,7,0,0,0
0,1405543021,385749,37.6042,23.7318,-9.93463,45.5629,-8.88289,0.167628,4.18045,9.81886,5.95175,0.815392,-6.71722,56.5692,7,0,0,0
0,1405543022,386761,41.3237,34.5827,-9.41327,54.7012,-8.38272,-0.161085,3.80174,9.20593,6.53073,4.18292,-3.67235,56.4709,6,0,0,0
0,1405543023,387768,41.2632,18.8933,-5.64361,45.7324,-7.91655,0.16452,4.21625,8.97082,0.275204,2.7598,-1.90161,56.5522,7,0,0,0
0,1405543024,388769,37.5248,36.5279,-11.0793,53.5271,-8.68173,0.24661,3.82903,9.49182,-1.51066,3.98557,1.72924,56.688,7,0,0,0
0,1405543025,389777,34.1756,27.3775,-11.1874,45.1958,-8.17304,0.0292278,3.30659,8.81664,1.73643,2.64993,-1.80669,56.6162,5,0,0,0
0,1405543026,390780,34.0135,26.9164,-10.6635,44.6668,-9.41649,0.104957,3.83801,10.1691,3.0807,1.00117,-2.86849,56.578,7,0,0,0
0,1405543027,391784,33.246,22.3771,-11.0621,41.574,-9.06834,0.383469,3.46729,9.71617,1.96776,1.78509,0.439296,56.5867,7,0,0,0
0,1405543028,392786,32.9537,23.151,-11.513,41.8863,-9.03152,0.326694,3.31371,9.62579,1.03264,0.819624,0.520242,56.6314,7,0,0,0
0,1405543029,393794,32.5314,27.2807,-12.4963,44.257,-9.31512,0.0225774,3.45337,9.93468,3.15927,3.05295,-2.95871,56.615,7,0,0,0
0,1405543030,394800,31.4661,25.9761,-11.1846,42.308,-8.65516,-0.152954,3.18894,9.22521,4.14717,1.81935,-2.73394,56.5482,7,0,0,0
0,1405543031,395809,32.9779,22.3463,-10.2397,41.1309,-8.35706,0.118476,3.02009,8.88682,-3.0718,6.10975,-0.246349,56.5525,7,0,0,0
0,1405543032,396816,34.2902,21.4009,-10.6489,41.7997,-8.73496,0.377453,3.27647,9.33687,-3.71635,4.9325,0.376866,56.5925,7,0,0,0
0,1405543033,397818,33.3875,23.634,-12.6099,42.8054,-8.61498,-0.00264004,3.07568,9.14755,-4.46908,4.6201,1.87639,56.543,7,0,0,0
0,1405543034,398824,33.1444,23.7926,-14.4652,43.2883,-8.86118,0.3112,3.13988,9.40618,-0.400619,4.29625,0.916217,56.6417,7,0,0,0
0,1405543035,399827,33.6278,23.7416,-13.1142,43.2027,-8.58076,-0.53685,3.15207,9.15714,1.26591,3.1105,-1.56628,56.674,6,0,0,0
0,1405543036,400834,34.9195,22.6374,-13.0931,43.6262,-8.71856,-0.367161,3.42111,9.37294,1.80166,5.51354,-1.82696,56.6281,6,0,0,0
0,1405543037,401840,33.0333,24.8295,-14.1005,43.6638,-8.5026,-0.00528583,3.04437,9.0312,2.62739,4.09424,-1.75025,56.6306,5,0,0,0
0,1405543038,402849,31.8167,23.4272,-14.9022,42.2281,-9.18184,-0.419594,3.09944,9.69994,3.33007,3.83466,-2.47163,56.7064,6,0,0,0
0,1405543039,403850,31.8497,23.0096,-15.2211,42.137,-9.51759,-0.30163,3.42136,10.1184,3.4409,2.90463,-1.12561,56.7534,5,0,0,0
0,1405543040,404859,25.7807,18.2189,-16.325,35.5398,-8.80011,0.148274,2.5606,9.16627,2.82811,3.38786,1.02629,56.6964,7,0,0,0
0,1405543041,405872,28.7998,17.3173,-14.9288,36.7721,-9.24771,-0.23177,2.57766,9.60303,3.36504,4.19418,-1.66517,56.71,7,0,0,0
0,1405543042,406880,32.0769,23.4037,-13.9329,42.0807,-8.69614,-0.329226,3.07555,9.22986,2.66572,2.65954,-1.78798,56.6696,7,0,0,0
0,1405543043,407881,31.8491,23.5916,-14.1615,42.0889,-8.53873,0.250744,3.13853,9.10073,-0.0757061,0.475592,-0.0130554,56.7689,7,0,0,0
0,1405543044,408885,33.3489,22.399,-13.894,42.5077,-8.85901,0.0882372,3.2991,9.45377,-0.855098,3.44898,-1.69704,56.733,7,0,0,0
0,1405543045,409892,36.0215,27.0537,-13.7564,47.103,-8.52485,-0.00825626,3.58916,9.24961,0.902104,3.41703,-1.11985,56.7244,7,0,0,0
0,1405543046,410897,39.942,30.2503,-13.036,51.7724,-8.59964,-0.503151,3.70392,9.37688,1.71112,3.35198,-1.03894,56.7555,7,0,0,0
0,1405543047,411901,38.3502,16.8994,-10.6187,43.233,-8.9733,-0.403854,3.60687,9.6795,2.32336,4.54819,-0.38276,56.7601,7,0,0,0
0,1405543048,412904,41.023,25.2041,-10.5986,49.2997,-9.95366,-0.550776,3.31853,10.5067,-0.378568,2.63339,-4.55822,56.7416,7,0,0,0
0,1405543049,413908,40.8483,27.4845,-10.9103,50.4283,-8.06176,-0.171813,3.5875,8.82562,5.63661,3.59672,-2.69336,56.6397,6,0,0,0
0,1405543050,414913,39.4991,31.8577,-12.1134,52.1711,-9.05711,-0.539199,3.46299,9.71155,3.52076,6.65013,-3.19504,56.7409,7,0,0,0
0,1405543051,415915,35.5514,26.4749,-11.3301,45.7514,-8.49364,-0.479538,3.25053,9.10702,2.18049,2.43604,-4.68838,56.7608,7,0,0,0
0,1405543052,416917,39.1562,32.6237,-11.3641,52.2174,-8.46089,0.646564,3.31716,9.11088,3.08773,1.23271,0.852082,56.8696,7,0,0,0
0,1405543053,417924,39.5956,32.5338,-10.8874,52.3908,-8.86833,0.127553,3.58887,9.56784,2.94468,2.90541,-3.1071,56.7951,7,0,0,0
0,1405543054,418926,36.2591,26.1735,-9.9817,45.8193,-8.74381,0.00437712,3.42738,9.39154,3.42133,3.4635,-0.616115,56.7639,7,0,0,0
0,1405543055,419927,35.1283,27.554,-11.3859,46.0745,-8.5608,-0.328369,3.2233,9.1534,2.95209,4.29649,-3.83856,56.7002,7,0,0,0
0,1405543056,420934,35.7682,27.8313,-10.0704,46.4258,-8.63226,-0.37467,3.19754,9.21307,3.085,-0.780289,1.24405,56.823,6,0,0,0
0,1405543057,421935,34.8342,24.9993,-10.5773,44.1618,-8.74728,0.118257,3.26618,9.33792,0.155133,3.18873,-3.57072,56.8436,7,0,0,0
0,1405543058,422944,35.4983,25.5241,-9.70928,44.787,-9.1895,-0.117872,3.45644,9.81875,3.94788,4.49769,-2.09332,56.8429,6,0,0,0
0,1405543059,423949,36.1827,27.6562,-9.29193,46.48,-8.66856,-0.115254,3.3584,9.2971,5.1836,2.29948,-2.75297,56.8263,7,0,0,0
0,1405543060,424956,34.8672,27.1529,-10.1352,45.3401,-9.17828,0.148968,3.38515,9.78378,1.51236,2.23365,-1.12681,56.7112,7,0,0,0
0,1405543061,425959,33.5082,26.6338,-10.1855,43.9989,-8.62752,0.0303473,3.09534,9.16603,1.27178,4.33891,-1.38718,56.7604,7,0,0,0
0,1405543062,426965,34.5883,27.5147,-10.387,45.4015,-8.8569,-0.00598182,3.15961,9.40361,1.43055,2.42691,-1.08338,56.7816,6,0,0,0
0,1405543063,427975,34.247,26.6177,-10.2433,44.5678,-9.03542,-0.0144863,3.29056,9.61597,0.329066,5.48707,-2.90552,56.8565,7,0,0,0
0,1405543064,428976,34.1268,27.1279,-10.2584,44.7861,-9.17891,0.045811,3.10839,9.69105,3.27704,2.26796,-4.69397,56.8326,7,0,0,0
0,1405543065,429977,34.4243,28.4011,-9.41483,45.6103,-9.08796,0.234295,3.42769,9.71571,2.75803,2.12679,-3.47493,56.8288,7,0,0,0
0,1405543066,430983,34.4426,26.9308,-10.8276,45.0422,-9.38993,-0.841481,2.46252,9.74387,3.36594,1.58942,-3.10539,56.818,7,0,0,0
0,1405543067,431989,32.2065,36.7341,-12.3113,50.3808,-9.43745,0.192616,2.50751,9.76679,3.11335,3.14668,-0.673219,56.7587,7,0,0,0
0,1405543068,432992,30.4104,30.251,-10.4509,44.149,-9.21025,-0.230379,2.41884,9.52537,2.7663,0.770019,-2.46365,56.8814,8,0,0,0
0,1405543069,433999,30.5256,38.5594,-12.5504,50.7558,-9.39532,0.116991,2.6243,9.75565,1.64081,5.06564,-1.62284,56.8485,7,0,0,0
0,1405543071,435010,37.5334,33.955,-7.97,51.2369,-9.16442,-0.00926285,2.42642,9.4802,1.44416,3.35221,-0.974355,56.9108,6,0,0,0
0,1405543072,436017,31.832,26.8618,-9.49083,42.7189,-8.94814,-0.0531677,3.08746,9.46596,1.36719,3.99753,-1.49667,56.8537,6,0,0,0
0,1405543073,437018,32.983,28.05,-9.8491,44.4037,-8.79666,0.0055373,3.17515,9.35215,0.229048,3.75323,-1.32421,56.8823,6,0,0,0
0,1405543074,438025,31.7864,27.2478,-9.89438,43.0199,-8.85103,-0.0311159,3.22342,9.41978,1.6123,3.35576,-1.24774,56.8866,6,0,0,0
0,1405543075,439030,32.2786,27.3404,-9.79421,43.4205,-8.75606,-0.0363875,3.27732,9.34937,1.76358,3.00879,-1.42834,56.8301,7,0,0,0
0,1405543076,440038,32.3962,27.099,-9.51319,43.294,-8.9129,-0.068317,3.10369,9.43808,2.34168,3.77251,-1.70711,56.9013,7,0,0,0
0,1405543077,441040,32.0964,27.1413,-9.8495,43.1722,-8.75598,-0.0441276,3.3508,9.37534,1.36743,3.82173,-0.562244,56.8824,7,0,0,0
0,1405543078,442055,31.6909,27.3841,-9.97671,43.0551,-8.83337,-0.0529747,3.23798,9.40829,1.49283,2.81143,-0.605591,56.9644,7,0,0,0
0,1405543079,443059,31.6622,27.5713,-9.25065,42.9913,-8.87414,-0.0594719,3.18487,9.42853,2.97114,4.1506,-0.894796,56.9312,7,0,0,0
0,1405543080,444067,31.8093,27.1902,-9.76974,42.9719,-8.83121,-0.0366885,3.26027,9.41387,0.938782,3.13913,-1.39167,56.854,6,0,0,0
0,1405543081,445071,32.141,27.1393,-9.5694,43.1411,-8.80152,-0.0644323,3.20485,9.36707,2.8579,3.31054,-1.52874,56.95,7,0,0,0
0,1405543082,446072,32.1326,20.324,-7.63327,38.7793,-8.94943,-0.236641,3.07422,9.46569,1.36966,0.418384,-1.57236,56.8861,6,0,0,0
0,1405543083,447083,31.8556,27.4805,-9.65153,43.1637,-8.87307,-0.0478038,3.13753,9.41158,-0.13936,3.7704,-1.60391,56.9448,7,0,0,0
0,1405543084,448087,31.6057,27.2259,-9.59436,42.8045,-8.867,-0.0743596,3.09503,9.39193,0.289173,3.83946,-2.60873,56.9549,6,0,0,0
0,1405543085,449090,31.6813,27.4281,-9.87962,43.0536,-8.86128,-0.0555285,3.18536,9.41658,0.660271,4.35244,-1.15761,56.9495,6,0,0,0
0,1405543086,450092,31.7691,27.5306,-9.57538,43.1149,-8.85927,-0.0483493,3.18087,9.41312,2.10432,4.10855,-1.19509,56.9649,6,0,0,0
0,1405543087,451105,31.9602,27.7283,-9.72538,43.4154,-8.88093,-0.0530158,3.15251,9.42402,1.59264,2.78294,-0.811946,57.064,8,0,0,0
0,1405543088,452106,31.3708,27.2165,-9.25958,42.5512,-8.86544,-0.0521802,3.17247,9.41612,1.53936,3.41762,-1.96545,57.0818,6,0,0,0
0,1405543089,453113,32.0103,27.187,-9.81067,43.1282,-8.85284,-0.0587912,3.21107,9.41738,0.803147,3.64976,-1.60091,56.9849,7,0,0,0
0,1405543090,454115,31.4953,27.5093,-9.62163,42.9102,-8.8938,-0.0466824,3.09926,9.41845,1.58699,3.56499,-2.26518,56.9733,7,0,0,0
0,1405543091,455121,31.7355,27.5117,-9.31422,43.0208,-8.84138,-0.0609225,3.191,9.3998,1.54373,3.45495,-1.39996,56.9902,7,0,0,0
0,1405543092,456131,31.6758,27.3965,-9.6076,42.9678,-8.86013,-0.0576499,3.16645,9.40913,2.01179,3.36156,-2.43198,56.9841,6,0,0,0
0,1405543093,457138,31.9652,27.1698,-9.3576,42.983,-8.87885,-0.0495191,3.16871,9.42746,1.38668,3.15627,-1.53723,56.9487,6,0,0,0
0,1405543094,458141,31.8647,27.2536,-9.37718,42.9657,-8.8472,-0.0092763,3.1819,9.402,1.27588,3.02845,-2.04308,56.9538,7,0,0,0
0,1405543095,459146,31.8089,27.1328,-9.78188,42.9381,-8.85014,-0.040596,3.17465,9.40239,0.210083,2.65825,-2.96047,57.1256,7,0,0,0
0,1405543096,460154,31.3914,27.3553,-9.49594,42.7072,-8.85106,-0.0651087,3.20667,9.41426,0.804077,3.25449,-1.79771,56.9899,6,0,0,0
0,1405543097,461169,31.8931,27.573,-9.50848,43.2186,-8.87596,-0.0573566,3.17318,9.4263,2.22182,4.19007,-0.194851,57.0272,7,0,0,0
0,1405543098,462178,31.7964,27.2571,-9.67676,42.9837,-8.88636,-0.0426025,3.15479,9.42985,1.66718,3.41064,-1.06921,57.0123,7,0,0,0
0,1405543099,463183,31.7176,27.2954,-9.57607,42.9272,-8.86297,-0.0548913,3.18114,9.41673,1.29929,4.69264,-1.56012,57.0779,7,0,0,0
0,1405543100,464185,31.6125,27.3056,-9.68642,42.8809,-8.84699,-0.0413479,3.1913,9.40507,1.74108,3.62142,-1.71891,57.0195,6,0,0,0
0,1405543101,465190,32.0504,27.0711,-9.83367,43.0903,-8.84413,-0.0612916,3.17844,9.39813,1.80331,4.34179,-1.20667,57.025,7,0,0,0
0,1405543102,466196,31.5019,27.375,-10.208,42.9647,-8.84586,-0.0617948,3.19785,9.40635,1.97137,3.90915,-0.377721,57.0238,7,0,0,0
0,1405543103,467202,31.45,27.1217,-10.3898,42.8093,-8.81847,-0.0615681,3.21399,9.3861,0.224421,3.53727,-0.199197,57.0193,7,0,0,0
0,1405543104,468212,31.5117,26.9872,-10.0255,42.6827,-8.87478,-0.0533002,3.18885,9.43045,3.05179,4.68503,0.307355,57.1904,8,0,0,0
0,1405543105,469219,31.877,27.0806,-9.89285,42.981,-8.8518,-0.0584438,3.17645,9.40466,-26.5791,-23.4727,-28.527,56.4906,6,0,0,0
0,1405543106,470237,31.9181,27.4533,-9.24601,43.1038,-8.85987,-0.0431421,3.17382,9.41129,2.03652,3.7409,0.324371,57.0369,7,0,0,0
0,1405543107,471242,31.4811,27.5496,-9.45387,42.8884,-8.85779,-0.0465485,3.19296,9.41582,1.03474,3.58572,-2.34324,57.1235,7,0,0,0
0,1405543108,472248,31.8347,27.2334,-9.3017,42.9142,-8.85633,-0.053501,3.17025,9.40681,1.17737,3.13653,-2.80706,57.1872,6,0,0,0
0,1405543109,473249,31.8848,27.0649,-9.49446,42.887,-8.85331,-0.048869,3.17408,9.40522,0.0235168,2.50848,-1.9477,57.0875,6,0,0,0
0,1405543110,474251,31.6986,27.203,-9.47474,42.832,-8.8391,-0.0376237,3.20135,9.40105,2.18222,3.5937,-1.67048,57.0323,8,0,0,0
0,1405543111,475264,31.7665,27.2427,-9.63995,42.9442,-8.87925,-0.0475834,3.17344,9.42943,1.32233,3.94605,-1.89542,57.1528,2,0,0,0
0,1405543112,476269,31.5517,27.1035,-9.76645,42.7258,-8.84019,-0.0560767,3.17423,9.39297,1.8406,4.68897,-1.02575,57.1128,7,0,0,0
0,1405543113,477270,31.8501,27.0845,-9.96273,42.9797,-8.84946,-0.0327381,3.16887,9.39977,1.83764,3.25741,-1.45455,57.117,7,0,0,0
0,1405543114,478274,31.7084,27.3063,-9.55495,42.9227,-8.84705,-0.0424838,3.16497,9.39623,1.80707,3.70127,-1.26116,57.1511,7,0,0,0
0,1405543115,479275,31.7414,27.0814,-9.7547,42.8494,-8.86658,-0.0594953,3.17148,9.4169,1.00394,3.72688,-1.978,57.1617,6,0,0,0
0,1405543116,480280,31.8216,27.4277,-9.69475,43.1147,-8.85794,-0.0477319,3.18435,9.41305,1.80067,3.18516,-1.08226,57.1143,7,0,0,0
0,1405543117,481285,31.6352,27.2462,-9.90558,42.91,-8.8464,-0.0522967,3.18205,9.40144,1.01779,3.6909,-1.41414,57.216,7,0,0,0
0,1405543118,482296,31.2496,27.2461,-9.91436,42.6284,-8.85778,-0.0768373,3.16733,9.40734,2.15453,4.18958,-1.33108,57.2591,7,0,0,0
0,1405543119,483297,31.7026,27.3507,-9.58776,42.9539,-8.85394,-0.0480417,3.19253,9.41205,1.35259,2.74023,-1.248,57.2177,7,0,0,0
0,1405543120,484304,31.6904,27.3557,-9.48468,42.9252,-8.8419,-0.0523363,3.17788,9.39579,2.25577,3.99964,-1.32818,57.2512,8,0,0,0
0,1405543121,485308,31.9396,27.1453,-9.62775,43.0082,-8.83124,-0.050896,3.19056,9.39005,1.54096,4.17595,-2.32654,57.2807,6,0,0,0
0,1405543122,486312,31.4196,27.0645,-10.0342,42.6657,-8.8451,-0.0435314,3.18257,9.40034,2.65439,3.48573,-1.25575,57.2618,7,0,0,0
0,1405543123,487320,31.6784,26.9645,-10.31,42.859,-8.85162,-0.0365137,3.20687,9.4147,2.2696,4.51475,-2.10301,57.2302,6,0,0,0
0,1405543124,488327,31.9831,27.6064,-9.49051,43.3024,-8.84842,-0.0585037,3.22374,9.41756,-0.3183,3.23095,-0.903747,57.2638,7,0,0,0
0,1405543125,489341,31.6346,27.2616,-9.91861,42.9222,-8.88406,-0.0671876,3.14228,9.42364,1.14843,3.97917,-1.85879,57.161,7,0,0,0
0,1405543126,490350,31.4216,27.0064,-10.2936,42.6921,-8.86845,-0.0350171,3.17167,9.4186,1.57527,4.13714,-2.52756,57.3173,7,0,0,0
0,1405543127,491351,31.7078,26.9465,-9.94458,42.7831,-8.84798,-0.0429391,3.18377,9.40346,2.24916,2.99888,-2.14628,57.385,7,0,0,0
0,1405543128,492353,31.7411,27.5014,-9.54349,43.0686,-8.83285,-0.0588845,3.18113,9.38841,1.55674,2.90879,-2.51529,57.2802,7,0,0,0
0,1405543129,493355,31.9054,27.3334,-9.60559,43.0969,-8.85937,-0.0560822,3.17828,9.41239,1.26343,3.17448,-0.639543,57.3183,7,0,0,0
0,1405543130,494363,31.8409,27.3036,-9.74915,43.0625,-8.83008,-0.0486156,3.19754,9.39132,1.20878,4.55813,-1.33115,57.3278,6,0,0,0
0,1405543131,495369,31.903,27.2595,-9.38764,43,-8.87181,-0.0466457,3.20043,9.43154,0.581401,3.62518,-1.82256,57.2647,6,0,0,0
0,1405543132,496371,31.6902,27.4139,-9.31184,42.9243,-8.87325,-0.0468835,3.18029,9.42608,1.18858,3.00628,-1.7677,57.147,6,0,0,0
0,1405543133,497381,31.882,27.2838,-9.82928,43.0985,-8.85971,-0.0512592,3.1639,9.40784,0.821898,4.33647,-0.215018,57.3264,6,0,0,0
0,1405543134,498394,31.5272,27.2196,-9.16676,42.6486,-8.86397,-0.0640121,3.15855,9.41013,1.58255,4.09118,-2.13542,57.3906,5,0,0,0
0,1405543135,499395,31.9525,27.3323,-9.05497,43.0117,-8.86124,-0.0710489,3.19392,9.41954,2.44486,3.87434,-0.991018,57.2361,6,0,0,0
0,1405543136,500406,31.7078,27.1471,-9.46697,42.8016,-8.88611,-0.0476157,3.17284,9.43568,2.18435,4.99021,-1.49618,57.3669,7,0,0,0
0,1405543137,501412,31.6044,27.1903,-9.45159,42.7491,-8.84981,-0.0503886,3.14944,9.39365,2.61201,4.17193,-0.0254313,57.4085,7,0,0,0
0,1405543138,502418,31.6547,27.4678,-9.14098,42.8959,-8.85692,-0.0434799,3.18677,9.41288,3.39129,3.41123,-1.98876,57.4321,7,0,0,0
0,1405543139,503420,32.139,27.4885,-9.07904,43.2546,-8.83212,-0.0381183,3.16553,9.38234,1.94627,2.72565,-2.66339,57.466,8,0,0,0
0,1405543140,504433,31.5938,27.0807,-9.36323,42.6521,-8.85245,-0.0461339,3.18409,9.40778,2.31571,4.3491,-1.10134,57.5261,6,0,0,0
0,1405543141,505439,31.5469,27.2155,-9.23992,42.6763,-8.87268,-0.037621,3.15211,9.41603,2.225,3.69349,-0.976737,57.4348,7,0,0,0
0,1405543142,506441,31.9401,27.3365,-9.73334,43.1531,-8.86087,-0.0432393,3.16925,9.41068,1.3092,3.33158,-1.1209,57.431,7,0,0,0
0,1405543143,507445,31.6979,27.3187,-9.71639,42.959,-8.86831,-0.0799233,3.15662,9.41369,2.00265,3.86697,-1.40205,57.4269,8,0,0,0
0,1405543144,508454,31.6604,27.3772,-9.6895,42.9625,-8.85042,-0.0591495,3.18609,9.40663,1.85908,4.17118,-0.642676,57.4905,6,0,0,0
0,1405543145,509456,31.7814,27.4078,-9.5182,43.033,-8.85158,-0.0469072,3.15951,9.39868,2.15265,3.84639,-0.901532,57.523,7,0,0,0
0,1405543146,510467,31.7794,27.3915,-9.44274,43.0045,-8.84932,-0.0582248,3.18082,9.4038,0.600727,3.15825,-2.39191,57.5254,5,0,0,0
0,1405543147,511476,31.6307,27.1913,-9.26898,42.7292,-8.85226,-0.0418728,3.1898,9.40952,1.31009,2.97644,-1.14346,57.4372,7,0,0,0
0,1405543148,512484,31.705,27.1191,-9.42083,42.7715,-8.86663,-0.0564037,3.18848,9.42267,1.97961,3.59249,-0.766721,57.3926,7,0,0,0
0,1405543149,513497,31.8215,27.3923,-9.25591,42.9955,-8.88162,-0.0256468,3.16172,9.42764,0.598523,3.70984,-1.47197,57.533,7,0,0,0
0,1405543150,514500,31.8439,27.4286,-9.15603,43.0139,-8.85385,-0.0734257,3.16908,9.40421,2.13845,3.20889,-2.23176,57.5123,7,0,0,0
0,1405543151,515501,31.7673,27.2743,-9.4337,42.9191,-8.85532,-0.0424377,3.20698,9.41824,1.76242,3.3501,-2.1393,57.4414,6,0,0,0
0,1405543152,516502,31.9801,27.5094,-9.69898,43.2847,-8.87403,-0.0258716,3.15096,9.41688,0.163282,3.29459,-1.47701,57.5901,7,0,0,0
0,1405543153,517506,31.6091,27.3236,-9.29878,42.804,-8.8567,-0.0721093,3.2059,9.41935,0.866497,3.56578,-1.24286,57.6805,6,0,0,0
0,1405543154,518514,31.9482,27.5174,-9.20708,43.1586,-8.85864,-0.0622758,3.13329,9.39664,3.33616,3.25032,-1.76199,57.5252,6,0,0,0
0,1405543155,519519,31.8523,27.4846,-9.22385,43.0703,-8.87219,-0.0460786,3.1816,9.42552,2.30272,3.02905,-1.37112,57.6891,7,0,0,0
0,1405543156,520525,32.0201,27.3564,-9.43181,43.1581,-8.85839,-0.0534871,3.19646,9.41761,1.82544,4.10386,-1.85129,57.5199,7,0,0,0
0,1405543157,521531,31.8141,27.437,-9.61258,43.0967,-8.85361,-0.0677348,3.17686,9.40656,2.67158,3.67667,-0.991599,57.7321,7,0,0,0
0,1405543158,522534,31.6314,27.2557,-9.28925,42.7751,-8.83445,-0.045018,3.20234,9.39704,1.96793,3.5717,-2.04633,57.4712,6,0,0,0
0,1405543159,523543,31.9115,27.5103,-9.52269,43.1954,-8.86402,-0.0511072,3.18766,9.4199,1.04836,4.57165,-1.65457,57.5848,7,0,0,0
0,1405543160,524548,31.6166,27.2683,-9.50466,42.8195,-8.85635,-0.0590491,3.18004,9.41016,3.06415,3.51908,-1.31336,57.5709,7,0,0,0
0,1405543161,525551,31.9401,27.281,-9.41141,43.0464,-8.86256,-0.0625573,3.15603,9.40795,1.24285,3.46314,-1.65392,57.6488,7,0,0,0
0,1405543162,526560,31.6268,27.4107,-9.4876,42.914,-8.85049,-0.0515825,3.18376,9.40586,2.12284,4.24907,-0.198218,57.6649,8,0,0,0
0,1405543163,527568,31.851,27.3927,-9.53324,43.0782,-8.82846,-0.0524113,3.1825,9.38471,1.97397,4.21723,-1.90363,57.7433,6,0,0,0
0,1405543164,528573,31.6668,27.175,-10.5848,43.05,-8.85916,-0.0534292,3.17991,9.41272,0.966497,3.77878,-1.02726,57.6515,7,0,0,0
0,1405543165,529579,31.5921,27.0369,-9.80492,42.7223,-8.86881,-0.0618443,3.12682,9.40408,1.13541,4.58243,-0.777208,57.7009,7,0,0,0
0,1405543166,530586,31.8357,27.4405,-9.50754,43.0916,-8.87663,-0.044936,3.17278,9.42672,-0.436036,3.12171,-1.29555,57.6721,7,0,0,0
0,1405543167,531594,31.771,27.2234,-9.4215,42.8867,-8.85272,-0.0543949,3.17413,9.40472,1.2822,3.96948,-0.29386,57.6394,6,0,0,0
0,1405543168,532602,31.8025,26.9118,-10.1184,42.8722,-8.86113,-0.0759891,3.19619,9.42025,0.568164,3.7786,-2.18682,57.6532,6,0,0,0
0,1405543169,533608,31.5619,27.2545,-10.0832,42.9026,-8.8675,-0.0604585,3.17651,9.41947,0.942529,3.51784,-2.02661,57.7522,6,0,0,0
0,1405543170,534616,31.6465,26.9646,-10.004,42.763,-8.86656,-0.058724,3.18316,9.42082,3.03054,4.1929,-0.801714,57.8347,6,0,0,0
0,1405543171,535618,31.7679,27.2848,-9.35745,42.9095,-8.85652,-0.0417234,3.17465,9.4084,0.90303,4.26963,-1.75759,57.7738,6,0,0,0
0,1405543172,536627,31.6928,27.1581,-9.37901,42.7781,-8.84453,-0.0640734,3.18033,9.39917,1.51521,3.16901,-0.764451,57.7552,7,0,0,0
0,1405543173,537630,31.525,27.0588,-10.1061,42.7567,-8.85142,-0.0541923,3.14665,9.39426,1.52864,4.2509,-1.72256,57.5988,7,0,0,0
0,1405543174,538636,31.3654,27.2221,-9.87697,42.6894,-8.85389,-0.0604334,3.16508,9.4028,2.10987,4.98757,-1.03855,57.6808,7,0,0,0
0,1405543175,539637,31.5008,27.3684,-9.45068,42.786,-8.84812,-0.0526339,3.19324,9.40685,1.5854,3.22611,-2.81598,57.8711,6,0,0,0
0,1405543176,540641,31.662,27.0651,-9.95631,42.8267,-8.84464,-0.0637461,3.1976,9.40512,0.448173,3.40509,-0.870014,57.7731,7,0,0,0
0,1405543177,541642,31.5392,27.0758,-9.63228,42.6685,-8.83435,-0.0446744,3.19543,9.3946,2.18745,4.72215,-0.968829,57.762,5,0,0,0
0,1405543178,542643,31.9042,27.3615,-9.35218,43.058,-8.85026,-0.048047,3.17627,9.40309,1.22834,3.69132,-1.33708,57.6704,6,0,0,0
0,1405543179,543649,31.7803,27.2173,-9.58296,42.9255,-8.83053,-0.0468048,3.17627,9.38452,2.97421,2.93255,-0.989394,57.7935,6,0,0,0
0,1405543180,544661,31.7523,27.3998,-9.74295,43.0568,-8.86724,-0.0695696,3.19083,9.42413,0.050142,4.52518,-1.4012,57.7678,6,0,0,0
0,1405543181,545669,31.847,27.2272,-9.50325,42.9635,-8.88463,-0.0418675,3.15513,9.42832,2.04943,3.90492,-1.53514,57.7986,6,0,0,0
0,1405543182,546680,31.8784,27.1569,-9.63004,42.9705,-8.87238,-0.0527078,3.1787,9.42476,0.653741,4.4401,-2.45038,57.6972,6,0,0,0
0,1405543183,547682,31.6654,27.521,-9.29537,42.971,-8.8458,-0.0474452,3.17582,9.39874,0.922796,4.19512,-1.98912,57.7987,7,0,0,0
0,1405543184,548694,31.7545,27.236,-9.39033,42.8757,-8.85179,-0.0567231,3.15564,9.39763,2.9908,3.95234,-1.09135,57.9245,7,0,0,0
0,1405543185,549702,31.647,27.2549,-9.32197,42.7933,-8.8873,-0.0348769,3.16494,9.4341,1.45485,3.72214,-0.913837,57.8565,7,0,0,0
0,1405543186,550713,31.4959,27.3458,-9.41366,42.7598,-8.85938,-0.0631219,3.19107,9.41677,2.33416,3.46157,-0.567851,57.7399,6,0,0,0
0,1405543187,551716,31.7817,27.2687,-9.47178,42.9345,-8.84099,-0.0499288,3.17548,9.39411,2.86856,3.54123,-1.90299,57.8971,8,0,0,0
0,1405543188,552718,31.8161,27.491,-9.25069,43.0533,-8.86197,-0.059021,3.17418,9.41347,2.90113,2.631,-1.35555,57.8475,7,0,0,0
0,1405543189,553724,31.5733,27.2827,-9.19782,42.7296,-8.85296,-0.0814159,3.19061,9.41071,0.629234,3.02875,-1.54791,57.7771,5,0,0,0
0,1405543190,554725,31.6412,27.491,-9.21992,42.9177,-8.84737,-0.0435728,3.15196,9.39216,0.335504,4.40136,-0.385064,57.8585,7,0,0,0
0,1405543191,555733,31.6628,27.5563,-9.12333,42.9548,-8.84789,-0.0715737,3.18153,9.40279,1.79108,3.53167,-1.30961,57.8339,7,0,0,0
0,1405543192,556738,31.5509,27.283,-9.15018,42.703,-8.85265,-0.0597528,3.18877,9.40963,2.0084,4.21144,-1.90436,57.8629,7,0,0,0
0,1405543193,557742,31.5602,27.3572,-9.31122,42.7921,-8.85727,-0.0410846,3.16624,9.40627,1.63726,2.89741,-2.59269,57.9247,7,0,0,0
0,1405543194,558751,31.3668,27.5729,-9.26274,42.7778,-8.8566,-0.0375937,3.22623,9.426,0.376583,3.92374,-1.49923,57.8509,6,0,0,0
0,1405543195,559766,31.7688,26.9076,-9.27682,42.6537,-8.86532,-0.0506495,3.1723,9.41594,1.77774,3.5629,-0.681639,57.8793,6,0,0,0
0,1405543196,560773,31.7356,27.4636,-9.40053,43.009,-8.85871,-0.0706233,3.16796,9.40838,2.42494,2.90126,-1.49539,57.8871,7,0,0,0
0,1405543197,561779,31.9649,27.2161,-9.37815,43.0165,-8.8522,-0.0600641,3.15944,9.39932,2.01286,4.635,-1.62821,57.8166,7,0,0,0
0,1405543198,562781,31.7691,27.2439,-9.39753,42.8932,-8.89262,-0.0370065,3.18618,9.44626,1.09128,4.10403,-1.08829,57.8878,6,0,0,0
0,1405543199,563790,31.6116,27.4176,-9.06087,42.8149,-8.83539,-0.0674787,3.18405,9.39185,2.50154,4.64381,-1.03293,57.8485,7,0,0,0
0,1405543200,564801,31.6255,27.3386,-9.44654,42.858,-8.85609,-0.0605991,3.17055,9.40672,1.09976,4.57498,-0.506561,57.8711,5,0,0,0
0,1405543201,565807,31.6421,27.5586,-9.27524,42.9736,-8.85331,-0.0555604,3.17672,9.40615,2.12997,3.31885,-0.344195,57.9808,7,0,0,0
0,1405543202,566814,31.7801,27.3415,-9.15997,42.912,-8.86403,-0.043932,3.18017,9.41735,1.38108,3.29216,-0.957974,58.0408,7,0,0,0
0,1405543203,567817,31.7989,27.2757,-9.62534,42.9858,-8.84027,-0.0473754,3.16682,9.39049,2.94797,2.81945,-1.18906,57.9494,7,0,0,0
0,1405543204,568825,31.7402,27.3602,-9.66901,43.0059,-8.86223,-0.0407578,3.17625,9.41432,1.00571,3.55309,-0.941131,57.8914,7,0,0,0
0,1405543205,569827,31.501,27.2923,-9.41136,42.7288,-8.86631,-0.0497156,3.16594,9.41473,2.50788,4.05552,-1.6266,57.9566,6,0,0,0
0,1405543206,570829,31.7225,27.2056,-9.36839,42.8279,-8.86374,-0.0490898,3.19855,9.42332,2.90308,3.52366,-1.69376,58.0093,7,0,0,0
0,1405543207,571832,31.7478,27.41,-9.20019,42.9403,-8.86523,-0.0388917,3.17474,9.41662,1.45077,3.34642,-1.90549,57.9507,7,0,0,0
0,1405543208,572834,31.4394,27.2102,-9.06953,42.5568,-8.86679,-0.058547,3.14857,9.40941,1.31156,4.0199,-2.50101,57.942,7,0,0,0
0,1405543209,573838,31.6682,26.9668,-9.39543,42.6422,-8.86889,-0.0629306,3.16697,9.41759,1.82439,3.66025,-2.2879,57.9858,7,0,0,0
0,1405543210,574843,31.8095,27.2396,-9.56433,42.9571,-8.84895,-0.038892,3.19024,9.40654,-0.156034,3.92955,-2.43683,57.9362,6,0,0,0
0,1405543211,575853,31.7575,27.4459,-9.2145,42.9735,-8.84964,-0.0692433,3.15216,9.39452,0.375749,3.57647,-2.89361,58.0336,7,0,0,0
0,1405543212,576854,31.4907,27.2958,-9.46854,42.7362,-8.85652,-0.050448,3.16406,9.40489,1.76539,3.81476,-0.546591,58.0388,6,0,0,0
0,1405543213,577857,31.7649,27.4131,-9.33154,42.9833,-8.86897,-0.0608801,3.2269,9.43796,1.13221,3.69286,-1.43394,57.9676,7,0,0,0
0,1405543214,578862,31.4675,27.0876,-9.3067,42.5507,-8.83541,-0.041418,3.18157,9.39087,1.22595,3.42543,-0.642053,58.0316,7,0,0,0
0,1405543215,579868,31.4984,27.2514,-9.29768,42.6759,-8.85223,-0.0555796,3.17818,9.40563,-0.316545,3.32692,-2.27206,58.0292,8,0,0,0
0,1405543216,580872,31.6868,27.2708,-9.48581,42.8687,-8.8753,-0.0475532,3.16221,9.42193,1.00598,3.75669,-0.380682,58.0038,6,0,0,0
0,1405543217,581874,31.3569,27.2928,-10.1998,42.8041,-8.85364,-0.0500532,3.19941,9.41413,1.97162,3.65066,-2.21561,58.0857,6,0,0,0
0,1405543218,582875,31.6142,27.5973,-9.78105,43.0899,-8.86063,-0.0535265,3.16884,9.41038,1.92817,3.87126,-1.79923,58.1601,6,0,0,0
0,1405543219,583885,31.6655,27.1958,-9.45482,42.7985,-8.84716,-0.0472885,3.17221,9.3988,0.909098,3.99963,-1.39075,58.0738,6,0,0,0
0,1405543220,584890,31.5228,27.2577,-9.43839,42.7288,-8.85859,-0.0504963,3.15946,9.40528,1.56286,3.30505,-2.22476,58.1307,7,0,0,0
0,1405543221,585898,31.9041,27.42,-9.23571,43.07,-8.85261,-0.0544498,3.17267,9.40412,1.11087,3.61429,-2.08017,58.0599,6,0,0,0
0,1405543222,586905,31.6312,27.2146,-9.06515,42.7006,-8.84466,-0.0442916,3.20084,9.40613,1.29296,4.55408,-1.86122,58.0144,6,0,0,0
0,1405543223,587923,31.7505,27.4623,-9.26062,42.9887,-8.84945,-0.0353903,3.14966,9.39332,2.28877,3.84226,-0.801049,58.1417,7,0,0,0
0,1405543224,588928,31.4325,27.2975,-9.28389,42.6538,-8.84746,-0.0733358,3.19501,9.40696,0.221154,2.58624,-0.654316,58.0947,6,0,0,0
0,1405543225,589931,31.6946,27.28,-9.32746,42.8456,-8.84996,-0.0771649,3.15931,9.39729,0.269146,3.11906,-1.93899,58.1273,7,0,0,0
0,1405543226,590938,31.7981,27.4249,-9.52614,43.058,-8.86591,-0.0521842,3.16865,9.41528,0.374042,2.96422,-0.994288,58.181,6,0,0,0
0,1405543227,591939,31.7062,27.3511,-9.16323,42.8641,-8.8534,-0.0564347,3.16974,9.40389,0.924739,3.23229,-1.65493,58.1357,6,0,0,0
0,1405543228,592949,31.4058,27.3286,-8.93512,42.5795,-8.85692,-0.051436,3.1584,9.40336,2.84638,4.68529,-1.04599,58.1134,6,0,0,0
0,1405543229,593956,31.9342,27.3373,-9.34126,43.0625,-8.84924,-0.0569798,3.19829,9.40964,3.79606,3.69635,-0.679214,58.1858,7,0,0,0
0,1405543230,594967,31.5227,27.0754,-9.65691,42.6616,-8.86427,-0.0431606,3.17672,9.41641,1.70925,3.89363,-1.78034,58.2297,6,0,0,0
0,1405543231,595970,31.0958,26.9883,-9.33287,42.2187,-8.8452,-0.0685205,3.18581,9.40169,2.01172,3.57077,-1.10899,58.1012,6,0,0,0
0,1405543233,597211,31.1578,26.9551,-9.30644,42.2374,-8.84251,-0.0702978,3.18273,9.39812,2.02426,4.36695,-1.22561,58.1378,1,0,0,0
0,1405543234,598218,31.6764,27.4371,-9.50259,42.9708,-8.83372,-0.0732947,3.14363,9.37669,1.63764,3.94248,-1.55857,58.1398,7,0,0,0
0,1405543235,599223,31.4394,27.4668,-9.36177,42.7844,-8.86895,-0.0652023,3.13071,9.40553,0.570449,3.87092,-0.398783,58.1491,6,0,0,0
0,1405543236,600236,31.8829,27.1871,-9.40405,42.9429,-8.84818,-0.0742788,3.19691,9.40829,2.38157,4.19376,-2.0751,58.1873,7,0,0,0
0,1405543237,601240,31.7588,27.2718,-9.63288,42.9554,-8.85061,-0.0452099,3.18037,9.40479,-0.610246,5.29103,-2.54739,58.2762,6,0,0,0
0,1405543238,602250,31.5412,27.3325,-9.46854,42.7969,-8.85984,-0.0562964,3.16866,9.40959,1.80755,3.5098,-1.91206,58.2671,7,0,0,0
0,1405543239,603255,31.6661,27.2192,-9.68271,42.8647,-8.85819,-0.0768395,3.16642,9.40743,1.34286,2.89906,-0.189475,58.2812,6,0,0,0
0,1405543240,604259,31.618,27.1449,-9.46794,42.7339,-8.84726,-0.0544365,3.15218,9.39219,1.75031,3.92176,-1.82894,58.1861,6,0,0,0
0,1405543241,605263,31.3092,27.0914,-9.2433,42.4222,-8.84921,-0.0590159,3.16295,9.39767,1.89888,3.4073,-0.471089,58.1916,6,0,0,0
0,1405543242,606265,30.6202,26.477,-10.1054,41.7223,-8.86073,-0.0547339,3.17318,9.41194,0.22318,4.09852,-1.37734,58.2419,6,0,0,0
0,1405543243,607276,30.8611,26.4317,-10.6888,42.0154,-8.8804,-0.0887998,3.15529,9.42472,2.99687,3.59166,-2.03082,58.2311,7,0,0,0
0,1405543244,608277,30.9739,26.5214,-9.83099,41.9454,-8.8784,-0.0388413,3.17177,9.42803,2.13795,2.87443,-1.37462,58.2672,6,0,0,0
0,1405543245,609284,30.5439,26.1475,-10.0219,41.4374,-8.85991,-0.0521068,3.18783,9.4161,3.28621,4.55835,-1.96113,58.2574,7,0,0,0
0,1405543246,610287,30.2658,25.7631,-10.2058,41.0356,-8.85843,-0.0605598,3.16867,9.40829,1.69393,4.52389,-2.13099,58.1895,7,0,0,0
0,1405543247,611288,30.3331,25.9329,-10.4516,41.2535,-8.83876,-0.0665948,3.18123,9.39406,1.33787,3.36423,-2.18161,58.2415,7,0,0,0
0,1405543248,612289,30.0686,25.9303,-10.3288,41.0266,-8.85389,-0.0509427,3.18806,9.41051,3.33031,3.70759,-1.62723,58.1887,6,0,0,0
0,1405543249,613298,30.0496,25.9336,-9.88849,40.9062,-8.86981,-0.0491885,3.17636,9.42152,-0.10964,4.12555,-1.41133,58.288,7,0,0,0
0,1405543250,614300,30.0178,25.9453,-10.0204,40.9223,-8.85673,-0.0454059,3.19747,9.41634,0.75617,3.52951,-1.80796,58.2964,7,0,0,0
0,1405543251,615306,29.7972,26.1002,-9.8795,40.8252,-8.83695,-0.0738975,3.17846,9.39147,3.18687,4.35839,-0.461286,58.3276,7,0,0,0
0,1405543252,616308,30.3417,25.6847,-10.5528,41.1301,-8.84056,-0.0559196,3.16469,9.3901,0.762896,3.43901,-1.04282,58.3029,5,0,0,0
0,1405543253,617315,29.929,25.6323,-10.3861,40.7508,-8.8691,-0.0438744,3.1989,9.42846,0.348146,3.85075,-1.66729,58.2568,8,0,0,0
0,1405543254,618321,29.8353,25.677,-10.0994,40.638,-8.86573,-0.043144,3.15625,9.41089,0.553845,4.23885,-1.3832,58.2772,7,0,0,0
0,1405543255,619326,29.7428,25.8997,-10.0874,40.7085,-8.85332,-0.0541495,3.18708,9.40966,0.812771,2.81187,-0.950651,58.2999,7,0,0,0
0,1405543256,620329,30.0625,25.9112,-10.2287,40.985,-8.82848,-0.0916751,3.17787,9.38346,1.18695,3.77176,-1.34371,58.3502,7,0,0,0
0,1405543257,621332,30.1566,25.5973,-10.0689,40.817,-8.85592,-0.0608368,3.18675,9.41203,1.41402,3.71135,-2.24258,58.3036,6,0,0,0
0,1405543258,622336,30.3198,25.7701,-10.0272,41.0357,-8.84526,-0.0493031,3.1735,9.39746,0.670744,3.98125,-0.871509,58.2674,6,0,0,0
0,1405543259,623343,30.443,25.889,-10.3161,41.2727,-8.85622,-0.0477126,3.19843,9.4162,0.184413,4.47914,-1.6055,58.2107,7,0,0,0
0,1405543260,624347,30.1523,26.3685,-10.2069,41.3357,-8.87001,-0.0626104,3.20166,9.43036,0.0795355,4.00675,-0.834517,58.2749,6,0,0,0
0,1405543261,625363,30.0988,26.2483,-9.88542,41.1417,-8.85785,-0.0409926,3.17178,9.40868,1.30568,3.32223,-1.50572,58.3078,7,0,0,0
0,1405543262,626366,30.0279,25.8637,-10.2563,40.9365,-8.8812,-0.0461158,3.17067,9.43032,-0.236179,3.90939,-1.35168,58.3384,5,0,0,0
0,1405543263,627369,30.3142,25.6062,-9.8262,40.8801,-8.8391,-0.0480322,3.20165,9.4012,1.72466,4.04757,-0.964428,58.2826,7,0,0,0
0,1405543264,628373,29.9298,25.7443,-9.99045,40.7231,-8.84537,-0.0719792,3.17409,9.3979,0.476295,3.52932,-2.86202,58.3109,5,0,0,0
0,1405543265,629374,30.0112,25.4938,-10.2777,40.6969,-8.84099,-0.0675338,3.18616,9.39783,1.98894,4.33578,-1.8779,58.4457,7,0,0,0
0,1405543266,630376,29.9797,25.5473,-9.56292,40.5326,-8.84917,-0.0359403,3.18567,9.40519,0.971883,5.17263,-2.36909,58.3487,7,0,0,0
0,1405543267,631388,30.0927,25.5501,-10.312,40.801,-8.87047,-0.059592,3.17733,9.42253,2.25252,3.71003,-1.46447,58.349,8,0,0,0
0,1405543268,632393,30.0647,25.7898,-10.1778,40.8972,-8.85776,-0.0510084,3.17976,9.41134,1.03403,4.21192,-1.71207,58.3441,6,0,0,0
0,1405543269,633399,29.9133,25.4549,-10.418,40.6361,-8.8576,-0.0636471,3.14841,9.40072,0.585644,3.9054,-1.73547,58.3577,6,0,0,0
0,1405543270,634405,30.1449,25.9193,-10.2298,41.0508,-8.83591,-0.0558088,3.18599,9.39292,1.92707,2.07075,-1.64673,58.263,7,0,0,0
0,1405543271,635413,30.3362,25.5939,-10.2903,41.0028,-8.86046,-0.0454995,3.17803,9.41327,1.89249,4.07114,-1.7356,58.3429,6,0,0,0
0,1405543272,636418,29.8103,25.989,-10.1747,40.8363,-8.85853,-0.0571154,3.20204,9.41965,1.62638,4.17183,-1.97112,58.366,6,0,0,0
0,1405543273,637421,29.9261,25.91,-9.94974,40.8154,-8.84944,-0.059229,3.17337,9.4014,2.62786,4.17857,-1.37216,58.3431,6,0,0,0
0,1405543274,638430,29.8551,25.9475,-10.2541,40.8626,-8.8555,-0.0559158,3.19416,9.41412,2.09569,4.21444,-1.41385,58.3792,7,0,0,0
0,1405543275,639445,30.1264,25.6004,-10.0685,40.7965,-8.85517,-0.0361894,3.21376,9.42038,2.05278,4.4087,-1.24191,58.3514,7,0,0,0
0,1405543276,640450,29.9865,25.8896,-10.146,40.895,-8.85954,-0.0453251,3.17167,9.41026,0.78452,3.19428,-0.708727,58.3979,6,0,0,0
0,1405543277,641458,29.9323,25.6748,-10.1762,40.7271,-8.84677,-0.0549544,3.14298,9.38865,2.91713,3.21534,-1.50402,58.3282,7,0,0,0
0,1405543278,642472,30.0187,25.5836,-9.97848,40.6843,-8.85409,-0.0466427,3.16043,9.40135,1.38159,3.34097,-0.724237,58.4548,7,0,0,0
0,1405543279,643473,30.0689,26.1681,-10.1358,41.1296,-8.85234,-0.0794254,3.17587,9.40512,0.59667,3.72942,-1.25396,58.4317,8,0,0,0
0,1405543280,644476,30.2309,25.7447,-10.4296,41.0545,-8.84143,-0.0657175,3.15842,9.38886,0.511015,3.34827,-1.71364,58.4335,7,0,0,0
0,1405543281,645484,30.2,25.5453,-10.1397,40.834,-8.84045,-0.062168,3.16124,9.38887,1.41452,4.54725,-0.878583,58.4041,8,0,0,0
0,1405543282,646489,29.806,25.9248,-10.0592,40.7637,-8.85484,-0.0490316,3.15696,9.4009,2.86879,4.45598,-1.25488,58.3592,5,0,0,0
0,1405543283,647497,30.044,25.5371,-10.0507,40.6916,-8.83056,-0.0869193,3.17748,9.38524,4.14296,3.81625,-1.93464,58.4116,6,0,0,0
0,1405543284,648502,30.518,25.7453,-10.0804,41.1799,-8.8392,-0.039238,3.20557,9.40259,0.886804,4.10787,-1.81345,58.4604,6,0,0,0
0,1405543285,649509,30.4907,26.0014,-10.2216,41.3551,-8.86262,-0.0488765,3.22676,9.43189,1.84774,3.96764,-0.76948,58.373,6,0,0,0
0,1405543286,650515,30.5819,26.1025,-10.3215,41.5105,-8.85036,-0.0541966,3.15768,9.39696,0.224844,5.52624,-2.69492,58.4177,6,0,0,0
0,1405543287,651516,30.322,26.2164,-9.84531,41.2754,-8.85295,-0.0471921,3.19162,9.41081,2.00769,4.43646,-2.10639,58.4927,6,0,0,0
0,1405543288,652519,30.7689,26.3878,-9.7886,41.6996,-8.86429,-0.04229,3.18584,9.4195,3.24121,4.3296,-1.07231,58.4659,7,0,0,0
0,1405543289,653521,30.5925,26.6171,-9.71552,41.6985,-8.85959,-0.0535978,3.17511,9.41151,0.241581,4.2477,-1.62146,58.4251,6,0,0,0
0,1405543290,654523,30.5133,26.3286,-9.51222,41.4094,-8.83299,-0.0545614,3.16654,9.38358,0.0012553,3.78898,-1.09002,58.5012,7,0,0,0
0,1405543291,655525,30.6384,26.4518,-10.2009,41.7429,-8.86199,-0.0407265,3.16026,9.40871,0.917542,3.45977,-0.474656,58.4544,6,0,0,0
0,1405543292,656527,30.5429,26.5716,-9.85185,41.665,-8.87689,-0.037812,3.1753,9.42779,2.95153,3.4073,-1.46851,58.4512,6,0,0,0
0,1405543293,657529,30.4234,26.1696,-9.93273,41.3411,-8.86128,-0.0493776,3.16517,9.40973,1.11036,3.30594,-1.94128,58.4762,8,0,0,0
0,1405543294,658531,30.4538,25.9783,-9.96696,41.251,-8.85383,-0.0616146,3.19,9.41118,0.640518,3.82263,-1.13413,58.4912,8,0,0,0
0,1405543295,659533,30.7,26.2956,-9.88604,41.6135,-8.84022,-0.0690078,3.17178,9.39225,2.82555,3.20555,-1.91461,58.6066,7,0,0,0
0,1405543296,660535,30.7225,25.9645,-9.8485,41.4128,-8.84085,-0.0405618,3.15866,9.38826,2.26265,3.75617,-2.4336,58.4967,6,0,0,0
0,1405543297,661546,30.8439,26.4094,-9.9149,41.7984,-8.84355,-0.0378702,3.18535,9.3998,1.38416,3.5165,-1.09875,58.5204,6,0,0,0
0,1405543298,662553,30.9683,26.5601,-9.93798,41.9909,-8.87105,-0.0415318,3.17882,9.42349,0.827748,4.4031,-0.932815,58.4552,7,0,0,0
0,1405543299,663554,30.9569,26.377,-9.89253,41.8562,-8.861,-0.0458721,3.15444,9.40584,0.567492,4.28905,-1.31481,58.4357,6,0,0,0
0,1405543300,664558,31.159,26.5155,-9.73737,42.0568,-8.89051,-0.0653852,3.17398,9.44031,1.61985,3.60121,-1.45722,58.6204,8,0,0,0
0,1405543301,665565,30.9566,26.7923,-9.59157,42.0492,-8.83322,-0.061373,3.1713,9.38545,0.477561,4.51252,-1.04436,58.5099,7,0,0,0
0,1405543302,666575,30.911,26.6458,-9.25704,41.8471,-8.87112,-0.0512382,3.19823,9.43017,2.56254,2.99688,-1.80919,58.5848,7,0,0,0
0,1405543303,667576,30.9641,27.1113,-9.71818,42.2876,-8.86992,-0.0681542,3.17228,9.42038,2.33894,3.74636,-1.79218,58.632,7,0,0,0
0,1405543304,668583,31.1759,26.6611,-9.52179,42.112,-8.85264,-0.0776507,3.20445,9.41509,2.18021,4.3328,-1.75763,58.541,6,0,0,0
0,1405543305,669591,31.1317,26.7994,-9.41891,42.1439,-8.86222,-0.0865325,3.16786,9.41179,0.609352,3.06831,-1.59974,58.6063,7,0,0,0
0,1405543306,670597,31.0819,26.7983,-9.58255,42.1433,-8.85652,-0.0311199,3.19881,9.41655,1.79449,3.03197,-2.18957,58.4566,7,0,0,0
0,1405543307,671598,31.083,26.9242,-9.28875,42.1585,-8.86476,-0.0520347,3.18604,9.42006,2.15024,3.06545,-1.01441,58.5499,7,0,0,0
0,1405543308,672600,31.3707,26.9628,-9.11542,42.358,-8.87804,-0.0483632,3.16634,9.4259,3.33053,4.86864,-1.03287,58.5869,8,0,0,0
0,1405543309,673608,31.21,26.837,-9.34581,42.2094,-8.85741,-0.0625763,3.1998,9.41787,1.58593,5.17813,-1.33139,58.697,7,0,0,0
0,1405543310,674617,31.4308,27.2665,-9.3134,42.6391,-8.88092,-0.0700743,3.19006,9.43674,-0.145085,3.52798,-1.09174,58.5422,6,0,0,0
0,1405543311,675618,31.2655,27.3251,-9.53312,42.6037,-8.8302,0.0149434,3.25064,9.40953,2.06444,4.61227,-2.04237,58.5808,7,0,0,0
0,1405543312,676625,31.3837,26.938,-9.56074,42.45,-8.81713,-0.0417064,3.19999,9.37995,1.18473,4.70267,-1.45743,58.5744,8,0,0,0
0,1405543313,677628,31.602,27.2166,-9.46295,42.7665,-8.86884,-0.0688069,3.18906,9.42503,1.19411,3.96977,-0.940138,58.5955,7,0,0,0
0,1405543314,678631,31.8382,27.0194,-9.29938,42.7808,-8.86628,-0.041497,3.15895,9.41231,2.02082,2.88311,-1.63034,58.6481,6,0,0,0
0,1405543315,679634,31.6207,27.0879,-9.50689,42.7083,-8.86916,-0.0410655,3.18591,9.4241,2.03467,4.87395,-3.05375,58.5478,7,0,0,0
0,1405543316,680638,31.5781,27.1309,-9.42247,42.6854,-8.85176,-0.0758785,3.226,9.4216,1.97363,4.17239,-1.22491,58.63,7,0,0,0
0,1405543317,681643,31.7571,27.2065,-9.42758,42.8671,-8.86355,-0.0302248,3.16752,9.41258,3.68073,4.86622,-0.54483,58.5956,7,0,0,0
0,1405543318,682646,31.5443,27.1273,-9.39812,42.6527,-8.86636,-0.0628537,3.1763,9.41834,1.6973,4.0828,-1.60289,58.6462,6,0,0,0
0,1405543319,683653,31.5472,27.0814,-9.44964,42.6371,-8.85063,-0.0495126,3.17637,9.40348,1.17834,5.09708,-1.71638,58.715,7,0,0,0
0,1405543320,684669,31.4538,27.1342,-9.56301,42.627,-8.86916,-0.0504124,3.1843,9.4236,2.41061,3.88984,-2.34571,58.7533,7,0,0,0
0,1405543321,685670,31.6184,27.0793,-9.35824,42.6683,-8.86724,-0.0579041,3.16724,9.41609,1.1559,3.8762,-1.34201,58.6913,6,0,0,0
0,1405543322,686677,31.3058,27.1076,-9.22083,42.4252,-8.84424,-0.0713751,3.18312,9.39989,1.54936,3.20846,-1.35073,58.6225,7,0,0,0
0,1405543323,687678,31.3818,27.3592,-9.22585,42.6434,-8.85583,-0.0677202,3.15956,9.40282,1.6737,3.61906,-1.72137,58.6823,6,0,0,0
0,1405543324,688683,31.229,27.0074,-9.11185,42.2809,-8.84634,-0.0422456,3.18155,9.40116,0.994377,4.08504,-1.39554,58.7576,8,0,0,0
0,1405543325,689685,31.4425,27.2992,-9.27258,42.6598,-8.86172,-0.0558555,3.17997,9.41517,0.327571,4.20183,-1.78291,58.6448,6,0,0,0
0,1405543326,690688,31.1393,27.3431,-9.11617,42.4311,-8.84201,-0.0647316,3.17916,9.3964,0.308608,2.92628,-2.14083,58.6509,7,0,0,0
0,1405543327,691696,31.4532,27.0982,-9.29351,42.5439,-8.84742,-0.0539396,3.18167,9.40228,2.8178,3.32827,-0.681274,58.815,6,0,0,0
0,1405543328,692703,30.8845,27.2972,-9.03701,42.1978,-8.85567,-0.0570642,3.16537,9.40456,0.711557,2.90327,-1.08506,58.7953,7,0,0,0
0,1405543329,693707,31.4953,27.1575,-9.32833,42.6204,-8.84611,-0.0604858,3.18525,9.40229,1.04757,4.29155,-1.23216,58.7644,6,0,0,0
0,1405543330,694712,31.0889,27.3581,-9.28568,42.4407,-8.85064,-0.0490454,3.19446,9.40961,3.11922,4.92757,-1.77611,58.8781,5,0,0,0
0,1405543331,695718,31.3138,27.3236,-9.23927,42.5734,-8.87587,-0.044387,3.19896,9.43485,2.4249,3.95225,-0.87162,58.798,6,0,0,0
0,1405543332,696724,31.2877,27.4235,-9.4556,42.6659,-8.85481,-0.0726092,3.16032,9.40216,1.53378,3.97521,-1.27487,58.7509,5,0,0,0
0,1405543333,697729,31.8007,27.062,-9.47446,42.8183,-8.85305,-0.0458085,3.17073,9.40384,0.00379342,4.16392,-1.24663,58.7183,6,0,0,0
0,1405543334,698738,31.5575,27.1681,-9.38448,42.6854,-8.82488,-0.0389803,3.1592,9.3734,0.371442,4.23882,-3.03759,58.7106,7,0,0,0
0,1405543335,699741,31.4522,27.0491,-9.23353,42.4988,-8.86451,-0.0449929,3.17866,9.41729,1.38977,3.44036,-0.952812,58.7947,8,0,0,0
0,1405543336,700743,31.7413,27.1946,-9.10416,42.7778,-8.84339,-0.0594565,3.16849,9.39407,1.09294,3.06336,-0.612615,58.8583,7,0,0,0
0,1405543337,701745,31.4056,26.7938,-9.32622,42.3226,-8.88467,-0.0698509,3.18481,9.4385,2.81459,4.48136,-0.85774,58.8095,5,0,0,0
0,1405543338,702755,31.4701,26.9972,-9.38285,42.5118,-8.85178,-0.0731231,3.16229,9.39997,0.660285,3.9122,-0.872792,58.8687,7,0,0,0
0,1405543339,703757,31.4091,26.818,-9.40507,42.3579,-8.85377,-0.0636299,3.19763,9.41372,2.36698,3.84896,-0.784961,58.8378,5,0,0,0
0,1405543340,704764,31.3016,27.3726,-9.25688,42.5997,-8.85776,-0.0578136,3.18298,9.41247,1.45517,3.55698,-1.40014,58.9006,7,0,0,0
0,1405543341,705768,31.4525,27.1362,-9.21376,42.5503,-8.86504,-0.0530305,3.19942,9.42486,0.953272,3.49011,-1.56052,58.8583,7,0,0,0
0,1405543342,706775,31.2087,27.133,-9.26703,42.3799,-8.88372,-0.0922993,3.19329,9.44066,2.21302,2.54685,-0.703959,58.7978,7,0,0,0
0,1405543343,707784,31.7365,27.2582,-9.42426,42.8839,-8.83002,-0.0519025,3.18506,9.38704,3.17775,4.05355,-1.81556,58.8754,7,0,0,0
0,1405543344,708789,31.4069,26.9823,-9.21491,42.4188,-8.84369,-0.0585743,3.15858,9.39101,1.23098,3.92088,-2.05823,58.8116,7,0,0,0
0,1405543345,709802,31.5709,27.4182,-9.32813,42.8427,-8.83565,-0.077973,3.14906,9.38037,1.02337,4.22745,-2.04733,58.8661,8,0,0,0
0,1405543346,710805,31.4774,27.3208,-9.12042,42.6665,-8.84436,-0.075554,3.19635,9.40452,0.659817,3.99531,-0.424383,58.7872,7,0,0,0
0,1405543347,711807,31.4716,26.9511,-9.31616,42.4689,-8.87035,-0.063836,3.17139,9.42045,0.344165,3.69327,-1.51125,58.8391,5,0,0,0
0,1405543348,712809,31.5422,26.9714,-9.30585,42.5319,-8.86706,-0.025874,3.18618,9.42216,-0.0849576,3.79121,-1.80367,58.7889,7,0,0,0
0,1405543349,713816,31.4902,27.1816,-9.45556,42.66,-8.8378,-0.0587611,3.17371,9.39055,1.12824,3.24964,-1.43685,58.8935,6,0,0,0
0,1405543350,714818,31.7072,27.0495,-9.61348,42.772,-8.84418,-0.0678243,3.15757,9.39119,1.54526,3.71069,-1.67637,58.9015,6,0,0,0
0,1405543351,715822,31.6492,26.9004,-9.24452,42.5531,-8.84245,-0.0673832,3.20145,9.4044,2.75369,3.17562,-1.19431,58.8288,7,0,0,0
0,1405543352,716826,31.7888,27.0853,-8.94666,42.7104,-8.84228,-0.0356433,3.17993,9.39676,1.84707,2.83142,-2.15906,58.953,7,0,0,0
0,1405543353,717831,31.338,27.4589,-9.13928,42.6566,-8.88174,-0.068666,3.16339,9.42852,0.833296,4.18903,-1.61025,58.9653,8,0,0,0
0,1405543354,718838,31.3927,27.3919,-8.73235,42.5685,-8.83285,-0.036894,3.18953,9.39115,0.324821,3.82622,-1.06231,58.8904,7,0,0,0
0,1405543355,719842,31.2842,27.1571,-9.40049,42.4803,-8.85441,-0.0221864,3.17019,9.40485,0.105013,4.5278,-0.170418,59.0035,6,0,0,0
0,1405543356,720848,31.5379,27.0959,-9.40689,42.63,-8.82886,-0.0622287,3.15777,9.37679,0.167119,4.55178,-1.82828,58.9732,6,0,0,0
0,1405543357,721856,31.2738,27.1912,-9.47124,42.5102,-8.88585,-0.0179446,3.19156,9.44165,2.39845,4.88929,-1.34987,58.9301,6,0,0,0
0,1405543358,722866,31.3271,27.0568,-9.49228,42.4683,-8.83638,-0.036921,3.17271,9.38877,1.59952,4.7457,-1.68615,58.859,7,0,0,0
0,1405543359,723867,31.5492,26.8876,-9.45077,42.516,-8.84451,-0.0862658,3.2087,9.40896,1.34877,4.18709,-0.914763,58.934,7,0,0,0
0,1405543360,724876,31.69,27.1909,-9.58081,42.8415,-8.83967,-0.041802,3.17487,9.39262,0.445247,4.53005,-1.91398,59.0408,7,0,0,0
0,1405543361,725879,31.2995,27.2877,-9.29914,42.5529,-8.85869,-0.0786391,3.18531,9.41429,1.02276,4.1471,-1.13031,58.8963,6,0,0,0
0,1405543362,726881,31.5199,27.1084,-9.19354,42.5781,-8.86562,-0.0184695,3.1604,9.4121,2.0102,4.60681,-1.11876,59.0295,6,0,0,0
0,1405543363,727884,31.3464,26.9451,-9.27831,42.3642,-8.86224,-0.0721313,3.16945,9.41222,2.27722,3.47845,-1.24054,58.8788,6,0,0,0
0,1405543364,728892,31.7137,27.0173,-9.28578,42.6839,-8.85514,-0.0901808,3.1583,9.40194,0.926017,3.00494,-1.4785,59.0213,6,0,0,0
0,1405543365,729902,31.1634,27.4073,-9.49741,42.5737,-8.86147,-0.0607034,3.18145,9.41547,1.53602,2.13228,-2.89988,58.8937,7,0,0,0
0,1405543366,730905,31.237,27.0191,-9.47889,42.3749,-8.85555,-0.0541027,3.19724,9.41521,-0.35451,3.11537,-1.21748,59.0397,6,0,0,0
0,1405543367,731909,31.288,26.8718,-9.53629,42.3317,-8.85692,-0.054975,3.16295,9.40491,1.43586,3.22367,-1.31916,59.0448,7,0,0,0
0,1405543368,732912,31.5753,27.0526,-9.72528,42.7016,-8.84778,-0.0649845,3.17052,9.39891,0.901649,3.13456,-1.33441,59.0529,6,0,0,0
0,1405543369,733916,31.2176,27.2648,-9.63106,42.5519,-8.8191,-0.0747124,3.15138,9.36554,0.386892,4.27007,-1.40008,59.0652,7,0,0,0
0,1405543370,734923,31.1043,27.097,-9.54474,42.3418,-8.87458,-0.0412175,3.17754,9.42638,1.57399,3.84318,-1.35444,59.0918,7,0,0,0
0,1405543371,735928,30.9417,27.0949,-9.11934,42.127,-8.85899,-0.0526345,3.20263,9.42026,2.15167,3.50133,-1.99488,59.0748,5,0,0,0
0,1405543372,736936,31.3459,26.9748,-9.29667,42.3867,-8.84005,-0.0801273,3.18307,9.396,2.20321,2.49875,-1.08347,59.0118,8,0,0,0
0,1405543373,737939,31.3721,26.6226,-9.4386,42.2144,-8.83644,-0.0523052,3.17901,9.39104,3.57431,4.05932,-1.89332,58.9742,6,0,0,0
0,1405543374,738949,31.1167,26.4371,-9.46888,41.9145,-8.8636,-0.0358806,3.17938,9.41665,0.111504,3.76235,-1.18001,59.0001,6,0,0,0
0,1405543375,739958,30.9697,26.6481,-9.53748,41.9548,-8.84661,-0.109598,3.21559,9.41353,3.59922,3.03779,-0.589475,59.1136,5,0,0,0
0,1405543376,740967,30.6248,26.7954,-9.86148,41.8703,-8.83992,-0.0499164,3.19646,9.40021,0.114851,3.19484,-2.66662,59.0618,6,0,0,0
0,1405543377,741975,31.0241,26.5896,-9.82133,42.0233,-8.84387,-0.0654332,3.18096,9.39877,2.31099,4.06997,-1.91124,59.0142,5,0,0,0
0,1405543378,742985,30.7506,26.4853,-10.1432,41.8325,-8.86207,-0.0509409,3.16791,9.4114,2.11415,4.12176,-1.07915,59.035,7,0,0,0
0,1405543379,743988,30.7453,26.3561,-9.73628,41.6499,-8.8477,-0.0599657,3.1968,9.4077,1.35715,4.63753,-0.745859,58.9636,7,0,0,0
0,1405543380,744992,30.2063,26.5344,-9.9497,41.4185,-8.87054,-0.0965858,3.16698,9.41943,2.0473,3.2563,-1.88293,59.1046,7,0,0,0
0,1405543382,746000,30.1212,26.2363,-10.0427,41.1884,-8.86743,-0.0926415,3.16701,9.41646,1.2224,3.63291,-1.43281,59.1603,7,0,0,0
0,1405543383,747003,30.3765,25.9383,-10.1033,41.2019,-8.8599,-0.0900445,3.14024,9.40038,2.04253,3.95207,-1.40236,59.1234,6,0,0,0
0,1405543384,748006,30.3623,25.7897,-10.1762,41.1161,-8.84415,-0.0578789,3.15081,9.38882,1.76917,3.40009,-1.272,59.1714,6,0,0,0
0,1405543385,749013,30.3308,26.0327,-10.1583,41.2414,-8.84437,-0.0781239,3.19794,9.4051,1.55126,3.46054,-1.37877,59.0801,7,0,0,0
0,1405543386,750017,30.2108,25.968,-10.2082,41.1246,-8.85142,-0.0512322,3.17446,9.40359,1.3155,3.60961,-0.604813,59.1406,7,0,0,0
0,1405543387,751026,29.6888,25.9453,-9.80836,40.6298,-8.92416,-0.0439415,3.11761,9.45315,1.89762,4.59653,-2.05409,59.2218,7,0,0,0
0,1405543388,752034,29.8773,25.9641,-10.3523,40.9141,-8.8373,-0.0960338,3.1928,9.39687,2.05594,3.40231,-3.51772,59.1776,7,0,0,0
0,1405543389,753035,29.9681,25.4556,-10.6077,40.7259,-8.85691,-0.057655,3.20108,9.41781,2.1334,5.29018,-1.39787,59.2101,7,0,0,0
0,1405543390,754040,30.0399,26.2179,-10.0578,41.121,-8.85129,-0.0456182,3.19317,9.40977,2.78133,3.94824,-1.29509,59.1191,7,0,0,0
0,1405543391,755048,29.9614,26.1279,-9.85446,40.9569,-8.87565,-0.0406253,3.19448,9.43311,2.75899,4.08374,-1.25622,59.2341,6,0,0,0
0,1405543392,756054,29.9426,25.9806,-10.1286,40.9163,-8.84132,-0.0639397,3.15074,9.38617,-0.42781,4.18607,-1.36396,59.149,7,0,0,0
0,1405543393,757057,29.8699,25.4386,-9.98511,40.485,-8.83956,-0.0315208,3.16066,9.38769,1.62853,3.58399,-0.937017,59.1797,6,0,0,0
0,1405543394,758060,29.6283,25.8481,-10.3643,40.6617,-8.84548,-0.08407,3.15612,9.39206,3.2631,4.55013,-1.00682,59.2084,7,0,0,0
0,1405543395,759072,29.6156,25.2767,-10.2767,40.2692,-8.8568,-0.0497327,3.17543,9.40897,0.229931,4.55565,-1.3289,59.2041,6,0,0,0
0,1405543396,760076,29.7072,25.074,-10.7145,40.324,-8.85273,-0.0529795,3.16732,9.40242,2.43883,4.00512,-2.10001,59.1665,7,0,0,0
0,1405543397,761083,29.5152,25.5549,-10.374,40.3958,-8.87128,-0.0608282,3.1575,9.41664,1.76212,3.15933,-1.82341,59.2977,7,0,0,0
0,1405543398,762089,29.4722,25.6943,-10.2004,40.4086,-8.84299,-0.0571334,3.16374,9.39207,1.61096,4.40363,-2.95213,59.3113,7,0,0,0
0,1405543399,763103,29.2639,25.7631,-10.339,40.3362,-8.85612,-0.0559881,3.17906,9.40959,1.92595,4.03113,-1.45754,59.188,7,0,0,0
0,1405543400,764110,29.2408,25.5738,-10.1515,40.1509,-8.86244,-0.0739368,3.15872,9.40882,0.810189,2.33527,-0.733285,59.1963,7,0,0,0
0,1405543401,765118,29.4046,25.7061,-10.3666,40.4091,-8.86231,-0.0525106,3.19581,9.42107,1.98845,4.20185,-1.75685,59.205,6,0,0,0
0,1405543402,766124,29.7417,25.6068,-10.52,40.6319,-8.85299,-0.0665348,3.1775,9.40619,1.81476,4.97214,-1.6842,59.2419,5,0,0,0
0,1405543403,767139,29.6693,25.0669,-10.3079,40.1855,-8.84742,-0.0411069,3.17107,9.39863,2.13466,2.94203,-2.46232,59.2341,7,0,0,0
0,1405543404,768142,29.8342,25.3048,-10.5361,40.5145,-8.83278,-0.0548553,3.17175,9.38515,1.95315,4.36133,-1.98189,59.3092,7,0,0,0
0,1405543405,769153,29.6168,25.9081,-10.2652,40.6664,-8.86691,-0.0535037,3.14151,9.40713,1.12885,3.82609,-2.28607,59.2832,7,0,0,0
0,1405543406,770156,29.4468,25.1809,-10.0253,40.0212,-8.84767,-0.0849623,3.17713,9.40121,0.95118,3.20577,-1.59845,59.2687,6,0,0,0
0,1405543407,771162,29.6541,25.7698,-10.3778,40.6343,-8.84016,-0.0592775,3.23272,9.41288,0.584246,4.39865,-1.62949,59.2317,8,0,0,0
0,1405543408,772167,29.5292,25.8014,-10.547,40.6069,-8.83887,-0.063371,3.17373,9.3916,-0.167675,3.88179,-0.33804,59.4022,6,0,0,0
0,1405543409,773176,29.8466,25.3353,-9.96262,40.3974,-8.85878,-0.0571872,3.17024,9.40912,1.09125,4.18462,0.431205,59.237,6,0,0,0
0,1405543410,774186,29.7844,25.2769,-10.4357,40.4343,-8.85318,-0.0255867,3.16534,9.40206,1.79253,4.11798,-0.667751,59.2747,7,0,0,0
0,1405543411,775187,30.1341,24.9622,-10.3341,40.4718,-8.86642,-0.044722,3.17153,9.41669,0.244843,4.80382,-3.72563,59.3812,7,0,0,0
0,1405543412,776188,29.2169,25.5465,-10.4651,40.1966,-8.84868,-0.0524709,3.17793,9.40219,3.19567,3.67184,-0.476425,59.2514,7,0,0,0
0,1405543413,777195,29.4301,25.178,-9.96248,39.9914,-8.86935,-0.069469,3.16927,9.41884,1.24409,4.27203,-1.64757,59.4001,6,0,0,0
0,1405543414,778201,29.5662,24.8707,-10.9256,40.1508,-8.83579,-0.0652563,3.1722,9.3882,0.21838,4.02209,-0.842857,59.3983,7,0,0,0
0,1405543415,779206,29.5562,25.1253,-10.5863,40.2109,-8.84526,-0.104218,3.15398,9.39133,2.03172,4.16684,-1.95657,59.3541,7,0,0,0
0,1405543416,780210,29.4096,25.5245,-10.8909,40.4356,-8.85145,-0.0589626,3.14508,9.39379,0.254716,4.21512,-1.6861,59.337,6,0,0,0
0,1405543417,781211,29.6606,25.297,-10.6543,40.4129,-8.85448,-0.0475222,3.17183,9.40556,1.79702,3.68862,-1.7223,59.4188,8,0,0,0
0,1405543418,782213,29.506,25.3414,-10.6198,40.3184,-8.85303,-0.0627886,3.16862,9.4032,1.10652,3.06025,-0.992706,59.4283,7,0,0,0
0,1405543419,783222,29.6437,25.4763,-10.3327,40.4297,-8.89647,-0.0471162,3.18149,9.44834,2.5446,4.15531,-0.696388,59.3867,7,0,0,0
0,1405543420,784223,29.4099,25.524,-10.4017,40.3065,-8.86578,-0.054309,3.17624,9.41772,1.47215,4.48405,-2.23158,59.3476,5,0,0,0
0,1405543421,785231,29.8195,25.1302,-10.3628,40.35,-8.86377,-0.0596395,3.19174,9.42111,2.23247,3.90594,-2.69179,59.379,7,0,0,0
0,1405543422,786232,30.0013,25.1936,-10.4203,40.5386,-8.86609,-0.0688013,3.17472,9.41759,1.98601,2.98817,-1.40501,59.3954,7,0,0,0
0,1405543423,787238,29.6639,25.2204,-10.2197,40.2548,-8.87272,-0.0493394,3.15283,9.41636,1.58402,4.75785,-1.591,59.3983,6,0,0,0
0,1405543424,788249,29.374,25.4514,-10.7003,40.3125,-8.85398,-0.0619833,3.18727,9.4104,1.67229,3.28454,-2.20239,59.3974,6,0,0,0
0,1405543425,789257,29.2098,25.4445,-10.7027,40.1893,-8.8681,-0.0593347,3.17111,9.41821,-0.393422,5.23135,-1.22477,59.4317,7,0,0,0
0,1405543426,790264,29.4563,25.4396,-10.6793,40.3596,-8.86361,-0.0644402,3.19354,9.42159,1.90033,5.05939,-0.876067,59.4524,6,0,0,0
0,1405543427,791267,29.7244,25.0103,-10.6525,40.2807,-8.86632,-0.0502997,3.19267,9.42376,2.33958,3.57553,-2.45881,59.4648,6,0,0,0
0,1405543428,792270,29.8982,25.5677,-10.3819,40.6865,-8.84886,-0.0558675,3.16748,9.39885,1.58027,4.11253,-1.25633,59.3749,6,0,0,0
0,1405543429,793272,29.4207,25.6135,-10.3501,40.3578,-8.86672,-0.0486261,3.18169,9.42042,0.634009,4.05796,-1.05936,59.39,7,0,0,0
0,1405543430,794282,29.4088,25.4448,-10.0457,40.165,-8.84159,-0.0494435,3.16148,9.38995,1.32669,4.48995,-1.38514,59.4638,7,0,0,0
0,1405543431,795284,29.4727,25.4584,-10.3113,40.2876,-8.84277,-0.0802872,3.15271,9.38832,2.23533,4.27714,-1.38692,59.3728,7,0,0,0
0,1405543432,796286,28.991,25.4441,-10.3228,39.9305,-8.86011,-0.0593299,3.19104,9.41742,1.15852,4.21214,-0.533705,59.5453,7,0,0,0
0,1405543433,797294,29.5896,25.306,-10.7634,40.3954,-8.8608,-0.0307566,3.15436,9.40556,2.29036,3.504,-1.82409,59.494,7,0,0,0
0,1405543434,798308,29.5157,25.2381,-11.2229,40.4239,-8.86213,-0.0502439,3.19429,9.42037,3.05787,4.14123,-1.8937,59.5505,7,0,0,0
0,1405543435,799311,29.5032,25.4682,-10.1027,40.2633,-8.85078,-0.0551431,3.15676,9.39705,0.562834,3.28065,-2.77309,59.4471,7,0,0,0
0,1405543436,800323,29.3542,25.3801,-10.8435,40.2914,-8.8498,-0.0574604,3.1643,9.39867,1.63376,4.4375,-1.42583,59.4692,7,0,0,0
0,1405543437,801328,29.4489,25.1644,-10.5526,40.1477,-8.85967,-0.0476274,3.1676,9.40902,1.51479,3.29238,-0.933073,59.4515,6,0,0,0
0,1405543438,802335,29.5056,25.0717,-10.779,40.1915,-8.84718,-0.0726506,3.18694,9.40396,1.48395,3.91111,-0.940696,59.4218,7,0,0,0
0,1405543439,803342,29.6171,25.1063,-10.3393,40.1796,-8.86603,-0.0620954,3.17519,9.41765,2.96691,4.14258,-1.53327,59.5716,6,0,0,0
0,1405543440,804344,30.0737,25.2935,-10.3525,40.637,-8.86806,-0.0468258,3.17714,9.42014,0.745067,3.15097,-1.07271,59.4903,7,0,0,0
0,1405543441,805358,29.7853,25.2967,-9.99077,40.3349,-8.8547,-0.0700474,3.16551,9.40378,0.789557,5.01824,-1.09452,59.5607,7,0,0,0
0,1405543442,806366,29.6439,25.8176,-10.1789,40.6069,-8.86301,-0.0376401,3.1765,9.41513,2.48651,5.29982,-1.71024,59.4886,7,0,0,0
0,1405543443,807371,29.9291,25.2312,-10.4305,40.5112,-8.85667,-0.0754331,3.14901,9.40014,1.62316,4.24206,-2.30077,59.5148,7,0,0,0
0,1405543444,808377,29.3583,25.2855,-9.99233,40.0139,-8.851,-0.082474,3.19573,9.41061,2.4245,3.59806,-1.4293,59.5737,7,0,0,0
0,1405543445,809384,29.367,25.5569,-10.0982,40.2188,-8.83135,-0.02269,3.20726,9.39573,3.63302,4.66265,-1.69077,59.5667,7,0,0,0
0,1405543446,810393,29.0849,25.3483,-10.0448,39.8668,-8.84004,-0.0952641,3.21769,9.40791,4.03488,3.33414,-1.49593,59.4353,6,0,0,0
0,1405543447,811395,29.344,25.0989,-9.19281,39.693,-8.84706,-0.176999,3.1527,9.39369,5.99713,3.84021,-3.51563,59.52,7,0,0,0
0,1405543448,812406,29.3395,25.2354,-9.12638,39.7608,-8.9383,-0.135094,3.01153,9.43296,4.35197,4.03432,-1.54993,59.5731,8,0,0,0
0,1405543449,813407,28.7137,25.7412,-8.88011,39.572,-8.76514,-0.114385,3.37667,9.39376,2.04676,4.04243,-2.15011,59.6192,6,0,0,0
0,1405543450,814414,35.7746,-0.15809,-0.530504,35.7788,-9.43632,0.194149,2.46787,9.75563,-0.365078,5.03664,-0.561446,59.605,7,0,0,0
0,1405543451,815421,28.5603,25.8853,-9.1745,39.6221,-8.86875,-0.0707036,3.18257,9.42277,2.41406,3.77712,-1.84222,59.6113,7,0,0,0
0,1405543452,816425,28.7612,26.1175,-9.2407,39.934,-8.86624,-0.0859368,3.19299,9.42405,3.80339,4.03363,-2.24618,59.5064,7,0,0,0
0,1405543453,817433,28.5447,33.1623,-9.19968,44.7121,-9.32319,-0.0519386,2.99489,9.79255,0.593232,1.55689,-0.883146,59.6303,6,0,0,0
0,1405543454,818435,31.009,30.1434,-8.37993,44.05,-8.80326,-0.0845924,3.40051,9.43759,-0.340529,4.37664,-0.248403,59.5726,7,0,0,0
0,1405543455,819448,28.2866,26.0786,-8.90161,39.4901,-8.84844,-0.0643718,3.18748,9.40527,2.09432,3.31794,-2.27921,59.5386,7,0,0,0
0,1405543456,820454,28.3355,25.9549,-9.18771,39.5091,-8.85217,-0.066138,3.17324,9.40398,3.09993,4.1596,-3.02441,59.5751,7,0,0,0
0,1405543457,821456,27.902,26.6431,-8.64602,39.5364,-8.84955,-0.102335,3.19342,9.40866,2.02326,3.96039,-2.36807,59.5839,7,0,0,0
0,1405543458,822457,28.5133,26.4604,-8.61841,39.8427,-8.98724,-0.0587387,2.87366,9.43567,3.522,2.95448,-2.58063,59.6836,7,0,0,0
0,1405543459,823465,27.5599,26.6352,-8.3133,39.2185,-8.89541,-0.0807314,3.09516,9.41886,1.52776,3.97691,-1.65144,59.5821,8,0,0,0
0,1405543460,824471,27.961,26.8273,-8.73053,39.7209,-8.8844,-0.104662,3.11113,9.41396,0.778546,2.99519,-0.99197,59.6349,6,0,0,0
0,1405543461,825479,27.4394,26.7074,-7.96546,39.1108,-8.89762,-0.125947,3.11896,9.42929,2.15481,5.60218,-0.393237,59.6063,7,0,0,0
0,1405543462,826494,27.5018,26.5599,-8.36168,39.1368,-8.86874,-0.0788357,3.11765,9.40109,2.18616,4.47159,-1.19537,59.6665,6,0,0,0
0,1405543463,827497,27.9008,26.6558,-8.61399,39.5372,-8.87923,-0.0756049,3.14386,9.41967,2.61105,3.80779,-1.70035,59.5513,6,0,0,0
0,1405543464,828505,28.0819,26.6646,-8.43506,39.6326,-8.89014,-0.0653182,3.132,9.42594,1.46343,5.04899,-1.65704,59.6654,7,0,0,0
0,1405543465,829509,28.0981,26.5728,-8.51284,39.599,-8.87928,-0.0724205,3.14461,9.41995,1.59859,3.20577,-0.609847,59.6262,6,0,0,0
0,1405543466,830518,27.5958,26.3894,-8.32219,39.0793,-8.85896,-0.0863422,3.16522,9.40783,1.39472,4.03641,-1.796,59.5743,7,0,0,0
0,1405543467,831523,27.1164,27.1967,-8.19275,39.2693,-8.89471,-0.068559,3.14646,9.43509,1.30318,3.97259,-0.718636,59.6893,7,0,0,0
0,1405543468,832534,29.9758,30.7965,-6.61488,43.4825,-8.89397,-0.16126,3.27236,9.47824,5.07475,3.6928,-3.48319,59.5628,7,0,0,0
0,1405543469,833537,25.7932,22.3017,-5.1837,34.4895,-8.81721,-0.312556,3.3637,9.44221,11.4189,3.72709,-6.92851,59.6114,7,0,0,0
0,1405543470,834546,24.4991,25.7331,-3.22324,35.6762,-8.68576,-0.427413,3.42179,9.34525,19.5748,5.23674,-12.1844,59.6502,6,0,0,0
0,1405543471,835547,21.1981,24.6609,1.1051,32.5383,-8.88866,-0.879793,3.39003,9.55378,28.9383,5.43656,-16.6743,59.7741,6,0,0,0
0,1405543472,836558,13.7157,32.2428,1.57202,35.0741,-8.91018,-0.935946,3.29394,9.54554,35.8677,7.82014,-24.3246,59.7137,5,0,0,0
0,1405543473,837564,3.96454,28.5786,1.01645,28.8702,-8.90239,-1.58852,3.1642,9.58061,42.4514,3.99019,-24.4568,59.7043,6,0,0,0
0,1405543474,838573,-4.44928,30.4541,-3.6299,30.9907,-9.32297,-1.47229,3.59722,10.1008,26.9718,5.68567,-12.856,59.6519,5,0,0,0
0,1405543475,839574,-8.09962,26.3785,-5.60895,28.1583,-8.66747,-1.01101,3.16403,9.28215,6.11458,3.41531,-0.343211,59.6197,6,0,0,0
0,1405543476,840577,-9.43077,26.834,-6.57722,29.1936,-8.94619,-1.19046,3.09963,9.5425,7.25413,2.92645,-0.827774,59.7204,6,0,0,0
0,1405543477,841580,-10.131,26.183,-8.40886,29.3069,-9.40037,-1.38374,3.39377,10.0896,15.3896,5.58557,-9.5184,59.6515,6,0,0,0
0,1405543478,842581,-13.1192,24.5885,-11.628,30.198,-8.86307,-1.62572,3.00345,9.4983,26.2797,5.79685,-12.8453,59.6635,7,0,0,0
0,1405543479,843596,-14.6563,21.4994,-16.7095,30.9231,-8.21363,-1.91258,2.60179,8.82559,27.6306,4.41209,-14.65,59.7339,7,0,0,0
0,1405543480,844601,-15.3715,19.0849,-20.6612,32.0532,-9.35412,-1.09808,2.96216,9.87319,20.1209,4.87398,-10.4657,59.6473,7,0,0,0
0,1405543481,845608,-15.0874,19.2224,-24.7099,34.7521,-8.90839,-1.09768,3.09809,9.4954,16.8589,4.09532,-9.355,59.6602,7,0,0,0
0,1405543482,846617,-14.4635,16.5935,-26.9471,34.7949,-8.83775,-1.05816,2.97096,9.38361,13.7887,4.23249,-6.28836,59.6998,5,0,0,0
0,1405543483,847619,-13.6224,15.6073,-28.635,35.3429,-8.84153,-0.991945,3.11842,9.42769,10.5941,4.23787,-5.60329,59.6808,7,0,0,0
0,1405543484,848624,-12.9608,15.3779,-29.5313,35.729,-8.88547,-0.908505,3.14997,9.47097,5.14375,5.04664,-3.7921,59.6766,7,0,0,0
0,1405543485,849626,-10.42,20.0815,-29.9755,37.5549,-8.73536,-0.933386,3.41053,9.42388,5.05275,2.65892,-2.4257,59.6724,7,0,0,0
0,1405543486,850627,-12.1672,12.7419,-29.9323,34.7324,-8.73202,-0.767734,3.35535,9.38594,0.090835,2.9614,-0.00582728,59.6576,7,0,0,0
0,1405543487,851633,-12.0493,9.31439,-29.175,32.9109,-8.78251,-0.810736,3.4106,9.45632,0.505374,3.46193,-1.10442,59.7199,6,0,0,0
0,1405543488,852634,-11.6343,7.97421,-28.5858,31.8762,-8.78409,-0.910021,3.41756,9.46932,2.15896,3.36805,-2.16575,59.7443,6,0,0,0
0,1405543489,853636,-13.0121,10.7289,-29.5001,33.9806,-8.79513,-0.895186,3.35014,9.45405,0.640327,2.9988,-2.64985,59.7274,7,0,0,0
0,1405543490,854644,-12.7529,14.984,-30.27,36.103,-8.8235,-0.92922,3.18885,9.42796,1.75005,4.59564,-1.95443,59.7694,6,0,0,0
0,1405543491,855647,-11.4062,18.0857,-31.0022,37.6608,-8.77816,-0.89423,3.28988,9.41696,2.02048,4.00472,-0.505139,59.774,7,0,0,0
0,1405543492,856648,-6.51595,25.2919,-29.5592,39.4447,-8.49545,-0.879096,3.75871,9.33131,2.89194,3.35864,-2.10477,59.628,6,0,0,0
0,1405543493,857656,-12.4781,15.3536,-30.4452,36.3091,-8.80092,-0.917353,3.13246,9.3867,1.68925,4.05832,-0.815479,59.7325,7,0,0,0
0,1405543494,858659,-12.7209,15.2553,-30.7069,36.5713,-8.89704,-0.888682,3.13604,9.47533,2.41873,5.00583,-1.44689,59.6829,7,0,0,0
0,1405543495,859667,-9.23082,17.7579,-29.732,35.8405,-8.57597,-1.01548,3.46335,9.30447,3.01087,4.68287,-0.712063,59.6177,8,0,0,0
0,1405543496,860673,-13.0808,10.2612,-29.9123,34.222,-8.73736,-0.924756,3.38505,9.41569,1.90961,3.76316,-1.91724,59.7193,6,0,0,0
0,1405543497,861682,-9.7066,19.1604,-30.0817,36.9628,-8.76855,-0.904505,3.39923,9.44777,3.00164,3.78501,-0.176174,59.7195,7,0,0,0
0,1405543498,862684,-12.8232,17.3053,-30.5627,37.3897,-8.66827,-0.917005,3.47209,9.38271,1.99276,4.17849,-1.77202,59.8113,7,0,0,0
0,1405543499,863685,-12.9363,10.7312,-29.4541,33.9124,-8.77355,-0.939216,3.31541,9.42599,2.96956,5.28522,-2.73501,59.8139,7,0,0,0
0,1405543500,864690,-12.2247,14.1953,-30.2285,35.5628,-8.90288,-0.919772,3.0972,9.47101,2.60384,4.87615,-0.71467,59.7814,7,0,0,0
0,1405543501,865695,-12.4937,14.4861,-30.5123,36.0131,-8.70033,-0.924951,3.4174,9.39308,0.668379,4.13472,-1.77119,59.7854,6,0,0,0
0,1405543502,866697,-12.0246,14.253,-30.6006,35.8348,-8.72916,-0.920988,3.33938,9.39137,3.72673,3.70803,-1.34991,59.7535,7,0,0,0
0,1405543503,867698,-12.4644,14.7724,-30.2135,35.867,-8.74316,-0.930767,3.3274,9.40111,0.0817264,4.07235,-1.96907,59.7423,7,0,0,0
0,1405543504,868705,-12.3688,14.5331,-30.7702,36.2078,-8.76382,-0.935874,3.34517,9.42712,1.1845,4.3065,-0.722487,59.7319,7,0,0,0
0,1405543505,869720,-12.6046,14.6024,-30.4882,36.0782,-8.72824,-0.930953,3.34019,9.39179,1.40172,3.52609,-2.07655,59.8227,6,0,0,0
0,1405543506,870726,-12.3124,14.9451,-30.4571,36.0914,-8.75964,-0.919967,3.31635,9.41148,2.46807,4.09246,-0.843727,59.7481,7,0,0,0
0,1405543507,871737,-12.4547,14.8828,-30.4785,36.1325,-8.74282,-0.918867,3.36466,9.41287,1.24963,4.27808,-0.824469,59.7927,7,0,0,0
0,1405543508,872745,-12.8845,14.735,-30.9113,36.5874,-8.75144,-0.915918,3.33793,9.41108,3.08999,4.35085,-1.30901,59.8272,6,0,0,0
0,1405543509,873747,-12.4734,14.1833,-30.728,36.0688,-8.74608,-0.939555,3.36136,9.41677,0.412323,3.48559,-1.4103,59.7648,8,0,0,0
0,1405543510,874751,-12.1067,14.6793,-30.5612,36.0006,-8.76303,-0.917289,3.29276,9.40608,3.24501,2.86084,-2.85918,59.8076,8,0,0,0
0,1405543511,875765,-12.8125,14.6315,-30.6275,36.2807,-8.75771,-0.934794,3.34278,9.42048,0.441866,4.36269,-1.55455,59.7883,7,0,0,0
0,1405543512,876778,-12.3241,14.5092,-30.8315,36.2351,-8.75302,-0.912042,3.32835,9.40878,0.0376463,3.81766,-2.01992,59.8401,7,0,0,0
0,1405543513,877793,-12.8381,14.6807,-30.3502,36.0759,-8.73819,-0.930407,3.36061,9.40825,1.64214,3.68044,-1.13734,59.8173,8,0,0,0
0,1405543514,878797,-12.6514,14.6268,-30.4593,36.0801,-8.69174,-0.862641,3.29402,9.33494,1.9726,2.92048,-1.24645,59.7663,7,0,0,0
0,1405543515,879806,-12.6728,14.053,-30.3183,35.7391,-8.74352,-0.870381,3.31166,9.39009,2.44059,4.22548,-2.0998,59.8146,6,0,0,0
0,1405543516,880812,-12.4581,14.5097,-30.4228,35.9344,-8.74125,-0.946754,3.33703,9.40434,-0.476781,3.52012,-0.469783,59.77,7,0,0,0
0,1405543517,881817,-12.3793,14.5902,-30.41,35.9289,-8.7299,-0.956201,3.29213,9.37889,0.746675,4.68497,-1.42741,59.8745,5,0,0,0
0,1405543518,882824,-12.3352,14.2559,-30.4131,35.7819,-8.75681,-0.952935,3.35643,9.42631,0.818328,3.15389,-1.52498,59.8491,7,0,0,0
0,1405543519,883827,-12.917,14.4999,-30.4046,36.0768,-8.74532,-0.967569,3.336,9.40987,2.24805,3.97911,-2.67754,59.895,5,0,0,0
0,1405543520,884835,-12.4305,14.4989,-30.3335,35.8449,-8.73293,-0.963479,3.34855,9.4024,1.9193,4.08728,-1.99934,59.896,6,0,0,0
0,1405543521,885837,-12.846,14.6446,-30.6284,36.2985,-8.74896,-0.952265,3.30595,9.40108,1.1839,4.88962,-1.2671,60.0271,6,0,0,0
0,1405543522,886847,-12.6634,14.8565,-31.0582,36.6836,-8.74359,-0.952469,3.32825,9.40398,2.54727,3.05774,-1.5096,59.8359,7,0,0,0
0,1405543523,887851,-12.6159,14.3346,-30.8175,36.2541,-8.76374,-0.926159,3.34043,9.42441,1.98189,4.28742,-1.82935,59.8305,6,0,0,0
0,1405543524,888862,-12.3452,14.4444,-30.5733,35.9968,-8.73068,-0.952888,3.35774,9.40251,0.855774,3.68954,-0.995782,59.9127,7,0,0,0
0,1405543525,889863,-12.2718,14.3569,-30.7268,36.0673,-8.73769,-0.938694,3.33068,9.39797,1.49898,3.56268,-1.30446,59.8827,7,0,0,0
0,1405543526,890864,-12.5425,14.8182,-30.7136,36.3348,-8.73216,-0.989524,3.34898,9.40455,1.57977,4.49742,-1.54138,59.8992,7,0,0,0
0,1405543527,891872,-12.3778,14.4179,-30.7534,36.1504,-8.74121,-0.948966,3.33982,9.40552,1.68412,4.23909,-1.50038,59.824,8,0,0,0
0,1405543528,892874,-12.4132,14.1198,-30.668,35.9719,-8.73352,-0.9646,3.3476,9.40273,1.32489,4.10919,0.476162,59.9441,3,0,0,0
0,1405543529,893876,-12.2265,14.2333,-30.3435,35.6763,-8.7185,-0.966161,3.3358,9.38474,0.883964,3.46088,-1.62954,59.981,6,0,0,0
0,1405543530,894883,-12.6584,14.4655,-30.6793,36.2037,-8.75208,-0.94113,3.31728,9.40686,0.70677,5.22581,-1.92959,59.9179,8,0,0,0
0,1405543531,895888,-12.8425,14.8575,-30.8357,36.5583,-8.72602,-0.939848,3.35408,9.39557,1.72182,3.68551,-1.12754,59.8848,7,0,0,0
0,1405543532,896896,-12.4268,14.3749,-30.601,36.0206,-8.74269,-0.95557,3.33974,9.40753,2.13502,5.37838,-1.74884,59.9256,7,0,0,0
0,1405543533,897902,-12.4066,14.3911,-30.6263,36.0416,-8.74804,-0.951107,3.31142,9.40204,0.329704,3.80275,-1.80311,59.8435,6,0,0,0
0,1405543534,898904,-12.5071,14.7848,-30.7278,36.321,-8.74941,-0.95717,3.38051,9.42848,1.37621,4.27385,-2.09473,59.9548,7,0,0,0
0,1405543535,899915,-12.48,14.4908,-30.4664,35.9714,-8.74121,-0.968329,3.34537,9.40946,3.13014,3.22199,-2.17382,59.8112,6,0,0,0
0,1405543536,900916,-12.6928,14.6563,-30.5909,36.2176,-8.7395,-0.947918,3.34825,9.40681,1.73529,4.42921,0.0301714,59.906,6,0,0,0
0,1405543537,901919,-12.3271,14.3847,-30.7132,36.0856,-8.73378,-0.942422,3.34925,9.40131,1.25046,3.74693,-0.568837,59.9073,7,0,0,0
0,1405543538,902921,-12.2582,14.7009,-30.9765,36.4132,-8.73987,-0.962454,3.31475,9.39676,0.628105,3.7223,-2.84417,59.9105,7,0,0,0
0,1405543539,903929,-12.5163,14.3813,-30.6845,36.1251,-8.73039,-0.963104,3.35362,9.40181,2.29086,4.5546,-0.0276877,60.0235,7,0,0,0
0,1405543540,904931,-12.7457,14.8996,-30.4744,36.2373,-8.72978,-0.962591,3.35678,9.40232,2.62132,3.89988,-0.905128,59.9194,7,0,0,0
0,1405543541,905933,-12.4966,14.6464,-30.5809,36.1368,-8.75442,-0.972959,3.34776,9.42306,2.06318,4.99054,-1.06589,59.8883,7,0,0,0
0,1405543542,906934,-12.797,14.8721,-30.2423,36.0491,-8.74373,-0.914195,3.33339,9.40213,0.19247,4.47568,-1.06382,59.9843,8,0,0,0
0,1405543543,907942,-12.495,14.6388,-30.6805,36.2176,-8.73049,-0.970622,3.36497,9.40673,3.0924,4.77604,-1.13803,59.9651,6,0,0,0
0,1405543544,908945,-13.2491,19.8037,-31.2717,39.3147,-8.70654,-0.943469,3.46711,9.41885,1.69651,4.3461,-2.14411,59.9363,8,0,0,0
0,1405543545,909947,-6.89404,6.68115,-27.1652,28.8117,-8.80057,-0.893071,3.65374,9.57065,4.10253,4.01681,-3.66852,59.9027,8,0,0,0
0,1405543546,910952,-6.67423,29.6501,-32.1128,44.2143,-8.70843,-1.01255,3.48166,9.43313,11.2192,3.97096,-6.1027,59.9317,6,0,0,0
0,1405543547,911953,-8.65064,6.01055,-31.5743,33.2851,-8.81539,-1.21778,3.48337,9.55656,15.749,5.90432,-9.40916,59.979,6,0,0,0
0,1405543548,912958,0.509211,22.1753,-35.4557,41.8224,-8.62203,-1.37709,3.47635,9.39791,19.5712,4.90488,-10.6866,59.9388,6,0,0,0
0,1405543549,913963,3.92123,5.75301,-34.4899,35.1856,-8.59377,-1.27713,3.47669,9.35795,23.8675,4.45455,-12.9585,60.0416,8,0,0,0
0,1405543550,914968,10.0503,13.2302,-37.4585,40.9779,-8.4325,-1.00916,3.66328,9.24906,25.4884,5.10597,-14.7438,60.1127,6,0,0,0
0,1405543551,915976,10.7861,13.9527,-39.7249,43.4636,-8.45288,-1.12825,3.42466,9.1898,28.4843,6.08442,-13.8547,59.9028,7,0,0,0
0,1405543552,916984,20.1784,20.7678,-40.7301,49.9741,-8.73111,-1.33221,3.51754,9.50684,33.181,6.55654,-15.0731,60.0325,6,0,0,0
0,1405543553,917985,24.2991,11.6521,-37.2741,45.9954,-8.62305,-0.962104,3.03884,9.19332,31.8497,3.14792,-16.3198,60.0316,7,0,0,0
0,1405543554,918998,30.8146,12.6563,-33.5989,47.3139,-8.77246,-1.01432,3.61051,9.54047,28.6879,4.18715,-13.6634,60.1736,8,0,0,0
0,1405543556,920003,30.799,13.0166,-30.2714,45.104,-8.76955,-1.09109,3.26775,9.42197,25.9895,4.17962,-12.9227,60.0887,7,0,0,0
0,1405543557,921005,33.9464,20.1207,-26.0632,47.2916,-9.05464,-0.576129,3.70852,9.80161,25.7507,6.47382,-16.1345,60.1019,7,0,0,0
0,1405543558,922011,31.5812,21.2063,-22.2479,44.0686,-9.0475,-0.80107,3.02226,9.57251,23.5791,4.97323,-14.515,60.1159,6,0,0,0
0,1405543559,923019,31.362,22.3232,-19.2362,43.0341,-8.8571,-0.600669,3.06802,9.39264,11.4381,2.98688,-6.4369,60.1777,7,0,0,0
0,1405543560,924029,30.2769,24.0568,-17.6914,42.5253,-8.95145,-0.576793,2.90215,9.42781,5.36842,4.20018,-4.10739,60.2261,7,0,0,0
0,1405543561,925035,32.4893,30.8684,-17.4833,48.1049,-9.02326,-0.431296,3.00978,9.52176,2.95244,4.66857,-0.210685,60.1372,8,0,0,0
0,1405543562,926039,30.774,23.3248,-16.7662,42.0974,-8.79042,-0.497857,3.32984,9.41314,0.959205,3.71633,-2.15765,60.1704,7,0,0,0
0,1405543563,927040,31.5642,22.6521,-16.9845,42.4015,-8.77987,-0.509562,3.33403,9.4054,1.93671,3.6779,-2.74547,60.1384,7,0,0,0
0,1405543564,928049,31.3111,22.6283,-16.6497,42.067,-8.76536,-0.473709,3.31454,9.38307,0.646162,4.20706,-1.74505,60.2357,7,0,0,0
0,1405543565,929053,31.3283,22.8389,-16.7824,42.246,-8.78704,-0.504574,3.31243,9.40419,1.06746,3.74856,-1.66018,60.107,6,0,0,0
0,1405543566,930059,31.427,23.2752,-16.7007,42.5242,-8.76492,-0.482832,3.3266,9.3874,1.69013,4.04257,-0.632116,60.1009,6,0,0,0
0,1405543567,931063,31.4904,22.7421,-16.7098,42.2855,-8.78287,-0.483861,3.34781,9.41174,0.80874,4.1849,-0.369128,60.2213,5,0,0,0
0,1405543568,932071,31.5642,22.9543,-17.1359,42.6244,-8.77431,-0.480974,3.31029,9.39031,3.20372,5.22702,-1.87293,60.1065,5,0,0,0
0,1405543569,933085,31.28,23.0076,-16.5749,42.2199,-8.78185,-0.489704,3.34809,9.41118,1.9035,3.08764,-2.4074,60.1793,6,0,0,0
0,1405543570,934086,31.416,22.6424,-16.7183,42.1799,-8.7684,-0.483419,3.34302,9.39651,0.862842,4.50158,-2.13468,60.1655,6,0,0,0
0,1405543571,935090,31.2639,20.2973,-16.6479,40.8236,-8.70605,-0.551968,3.36199,9.34895,2.682,3.43997,-1.98308,60.1482,8,0,0,0
0,1405543572,936100,32.7371,33.8602,-17.7664,50.3376,-8.53695,-0.626506,3.56678,9.27329,6.04764,3.2645,-2.43269,60.1995,6,0,0,0
0,1405543573,937104,38.6751,26.6091,-12.6742,48.6256,-8.5675,-0.799633,3.89453,9.44504,11.0968,6.5257,-6.74947,60.2383,7,0,0,0
0,1405543574,938105,32.777,20.6587,-9.8742,39.9826,-8.5435,-0.855402,3.74545,9.36758,19.4378,6.389,-10.8113,60.1819,6,0,0,0
0,1405543575,939106,30.1926,27.2414,-6.58069,41.1946,-8.68688,-1.30548,3.29977,9.38375,26.174,5.36345,-13.7909,60.2662,8,0,0,0
0,1405543576,940109,26.8373,33.6072,-2.50609,43.0809,-8.49721,-1.28524,3.52188,9.28753,31.071,5.18854,-16.7451,60.2698,6,0,0,0
0,1405543577,941116,21.6537,36.5772,-1.28796,42.5257,-8.87898,-1.10012,3.59189,9.64096,24.1969,4.17902,-9.45712,60.1978,6,0,0,0
0,1405543578,942124,16.1668,35.7092,-0.487999,39.2014,-8.69777,-1.03647,3.34539,9.37641,15.9436,3.92479,-6.50194,60.2365,6,0,0,0
0,1405543579,943137,13.6834,33.2526,-0.307622,35.9592,-8.80937,-0.432424,3.25055,9.3999,-5.42826,4.25768,-0.656229,60.1681,7,0,0,0
0,1405543580,944139,16.0053,28.9297,-0.908048,33.0745,-9.22735,-0.169945,3.49119,9.86718,-17.2829,3.59515,8.84734,60.2142,6,0,0,0
0,1405543581,945145,21.2268,30.1648,-2.11345,36.9454,-8.89222,0.312294,3.19233,9.45304,-26.344,2.23339,12.3468,60.1943,7,0,0,0
0,1405543582,946147,28.1422,30.7065,-7.42632,42.3087,-9.1512,0.690538,3.25312,9.73673,-41.3184,2.77126,18.9793,60.2557,6,0,0,0
0,1405543583,947148,34.4416,27.0306,-15.3879,46.4076,-8.66267,0.884617,3.15096,9.26029,-42.7913,1.63813,21.8708,60.3467,7,0,0,0
0,1405543584,948155,37.0813,21.0483,-23.0553,48.4727,-8.97362,0.967376,3.23778,9.58879,-46.0533,2.84052,24.0382,60.2874,4,0,0,0
0,1405543585,949164,33.281,20.6196,-32.0158,50.5748,-8.49644,0.581386,3.05957,9.04923,-45.7903,2.2144,21.5548,60.3345,7,0,0,0
0,1405543586,950168,25.9566,9.73331,-36.715,46.0052,-8.71939,0.457831,3.63789,9.45894,-32.8639,3.3113,17.4069,60.2619,7,0,0,0
0,1405543587,951169,19.8007,20.638,-40.7091,49.7517,-8.48163,0.324494,3.32427,9.1156,-31.7208,4.43099,17.0238,60.3979,6,0,0,0
0,1405543588,952172,10.4957,6.83728,-38.3694,40.3623,-8.95054,0.282965,3.53089,9.62598,-36.653,0.729267,20.346,60.333,7,0,0,0
0,1405543589,953179,2.35559,8.25829,-35.8225,36.8375,-8.79477,0.0591965,3.80653,9.58338,-35.2362,1.56432,14.1569,60.3364,7,0,0,0
0,1405543590,954182,-3.75533,19.8812,-34.9496,40.3837,-9.0873,-0.953501,3.61021,9.82455,-6.02836,3.63172,3.71231,60.3555,7,0,0,0
0,1405543591,955183,-9.64703,12.7545,-33.3778,37.0111,-9.29682,-0.483904,3.43781,9.92389,-13.2251,4.3405,4.17715,60.3658,7,0,0,0
0,1405543592,956191,-11.4318,13.412,-33.1333,37.5284,-8.86748,-0.968344,3.19861,9.47634,-4.13714,3.04473,-0.305646,60.4489,6,0,0,0
0,1405543593,957194,-12.7588,14.0327,-31.6119,36.8648,-9.04944,-1.06972,3.18549,9.65318,-0.815912,3.70626,1.70828,60.3684,7,0,0,0
0,1405543594,958207,-11.3312,14.7722,-31.4387,36.5378,-8.65329,-1.26206,3.58242,9.45018,1.07815,3.71708,-0.500698,60.2927,7,0,0,0
0,1405543595,959215,-11.256,13.3619,-30.376,35.0419,-8.6778,-1.06796,3.43133,9.39248,2.25385,4.51905,-1.42003,60.2912,7,0,0,0
0,1405543596,960218,-12.4155,13.4342,-31.2088,36.1748,-8.6485,-1.3033,3.31133,9.35201,1.42191,4.55778,-3.19789,60.4063,7,0,0,0
