0,1405778081,utime,,bx(uT),by(uT),bz(uT),,B(uT),ax,,,,ay,,az,,,,,A,,,,,gx,,,gy,,,,gz,,,T(C),rate,,track,tilt,roll
0,1405778081,mins,,-1000,-1000,-1000,,,,,0,,,,-2000,-2000,-2000,,0,,,-2000,,-2000,-2000,-2000,,0,,0,,-180,-180
0,1405778081,maxs,,,1000,,1000,,1000,,,,1000,,,2000,,2000,,2000,2000,,2000,,,2000,,2000,,2000,,37000,360,180,180
0,1405778081,attr,,,,,F,,,,,F,,,,,F,,,,,,F,,,,,,F,,,,,F,,,,F,,,,,F,,,,,F,,,,,,F,,,,,F,,,,,F,,,,,I,F,F,F
0,1405778082,2013,4.80122,2.75229,-6.4526,8.50076,-1.45171,-0.118776,0.554288,1.55846,0.428986,1.11304,0.0927536,2.00667,0,0,0,0
0,1405778083,3017,29.4369,17.1084,-37.7871,50.8635,-8.6695,-0.73393,3.34639,9.32187,3.12006,4.51336,-1.05426,20.4971,11,0,0,0
0,1405778084,4022,29.3124,17.1272,-37.7492,50.7697,-8.70913,-0.698796,3.24658,9.32082,1.66016,5.08094,-2.28417,20.4132,10,0,0,0
0,1405778085,5024,29.1809,17.1854,-37.9518,50.8646,-8.69637,-0.734971,3.28503,9.32515,2.3205,4.27475,-1.33437,20.5184,7,0,0,0
0,1405778086,6029,29.4409,16.8887,-38.3847,51.2384,-8.67024,-0.865505,3.31002,9.32086,1.66191,3.83734,-1.4653,20.4351,11,0,0,0
0,1405778087,7031,29.2504,16.6975,-37.9057,50.7073,-8.71038,-0.74686,3.28043,9.33754,1.93981,5.17595,-0.417302,20.4212,12,0,0,0
0,1405778088,8036,29.7447,17.9708,-37.9079,51.4267,-8.68428,-0.734906,3.2801,9.31214,1.45051,4.26328,-1.9427,20.5017,12,0,0,0
0,1405778089,9041,29.4188,16.5458,-38.1598,50.945,-8.64867,-0.65744,3.34483,9.29621,2.54021,4.2796,-0.932558,20.7593,11,0,0,0
0,1405778090,10042,29.075,16.8503,-38.0578,50.7709,-8.70438,-0.773842,3.31136,9.34506,1.08362,4.74221,-1.83986,20.685,10,0,0,0
0,1405778091,11043,29.197,16.928,-38.1651,50.9471,-8.68259,-0.777326,3.31239,9.32543,2.12828,4.13678,0.192412,20.7682,11,0,0,0
0,1405778092,12048,29.1124,17.1569,-37.9353,50.8033,-8.71796,-0.753362,3.30527,9.35388,1.81065,4.95338,-1.41754,20.7779,11,0,0,0
0,1405778093,13049,29.2373,16.8179,-38.2003,50.96,-8.68976,-0.771524,3.29523,9.32554,1.58911,4.269,-2.97697,20.8811,11,0,0,0
0,1405778094,14050,29.4554,17.3843,-38.0974,51.1981,-8.69559,-0.761244,3.18236,9.29086,2.78753,3.83659,-2.61654,20.9197,11,0,0,0
0,1405778095,15053,29.424,17.275,-38.4389,51.398,-8.69101,-0.742445,3.27554,9.31741,2.42992,5.37475,-1.98805,20.9533,11,0,0,0
0,1405778096,16055,29.1525,16.9785,-38.4421,51.1462,-8.71273,-0.722348,3.27633,9.33637,1.45317,3.80434,-0.866755,20.9814,12,0,0,0
0,1405778097,17061,29.5072,16.6793,-37.8424,50.8028,-8.69288,-0.82736,3.35617,9.35492,2.71774,4.1055,-1.11121,20.961,12,0,0,0
0,1405778098,18066,29.2279,16.9444,-38.0669,50.8967,-8.71356,-0.70323,3.28613,9.33913,2.00986,5.46415,-0.990516,21.0194,11,0,0,0
0,1405778099,19072,29.3989,17.2326,-37.5718,50.7238,-8.69368,-0.726202,3.24272,9.30713,1.83277,4.42846,-2.59724,21.1221,9,0,0,0
0,1405778100,20620,29.1176,16.6892,-38.0848,50.7624,-8.71107,-0.784019,3.33916,9.36202,0.808596,4.85597,-2.89201,21.1818,8,0,0,0
0,1405778101,21625,29.244,16.4728,-38.2868,50.9161,-8.68363,-0.73846,3.28931,9.31506,0.696251,4.45016,-2.45168,21.1077,7,0,0,0
0,1405778102,22630,29.5875,17.1332,-38.3321,51.3646,-8.70767,-0.745006,3.24401,9.32213,1.28413,5.40172,-1.59779,21.1292,7,0,0,0
0,1405778103,23632,29.3957,17.1634,-38.2831,51.2278,-8.69215,-0.744261,3.32915,9.33759,2.14249,5.49882,-1.51602,21.2462,7,0,0,0
0,1405778104,24637,29.2226,17.0459,-37.8235,50.7458,-8.69814,-0.766157,3.25101,9.31738,0.853191,4.48642,-2.19537,21.1714,7,0,0,0
0,1405778107,27176,29.3352,17.1504,-38.324,51.2193,-8.68448,-0.738623,3.29546,9.31804,2.06153,6.0358,-0.866462,21.2846,6,0,0,0
0,1405778108,28185,29.3565,17.3047,-38.3945,51.3361,-8.70289,-0.78438,3.30352,9.34178,2.03014,4.51617,-1.43132,21.359,7,0,0,0
0,1405778109,29192,29.3014,16.6625,-38.1746,50.9265,-8.68275,-0.802231,3.28777,9.31897,2.74498,5.08602,-2.38861,21.315,8,0,0,0
0,1405778110,30196,28.9454,16.4832,-38.2137,50.6933,-8.69634,-0.71551,3.33231,9.34037,1.49711,4.63055,-2.01691,21.3513,7,0,0,0
0,1405778111,31203,29.4487,16.8818,-38.2487,51.1389,-8.6947,-0.748171,3.30423,9.33142,2.12477,6.01356,-2.23189,21.3122,7,0,0,0
0,1405778112,32373,29.3209,16.9685,-37.9276,50.8542,-8.68725,-0.772175,3.28836,9.32083,2.32553,4.13086,-2.88526,21.3405,4,0,0,0
0,1405778113,33375,29.3846,17.2394,-38.4304,51.357,-8.70616,-0.759702,3.29059,9.33822,2.22739,4.43967,-0.982993,21.4524,7,0,0,0
0,1405778114,34376,29.5151,17.1586,-38.0109,51.092,-8.69646,-0.775476,3.26387,9.32109,1.10826,5.54145,-1.25137,21.4394,7,0,0,0
0,1405778115,35381,29.6782,16.9861,-38.2545,51.3101,-8.72414,-0.75546,3.29906,9.35762,1.35311,4.36064,-1.54631,21.4424,8,0,0,0
0,1405778116,36390,29.5329,17.1289,-38.178,51.2167,-8.70771,-0.763416,3.2961,9.34191,2.64352,5.16185,-1.41355,21.4295,7,0,0,0
0,1405778117,37705,29.579,16.7792,-38.0906,51.0622,-8.65012,-0.728218,3.32475,9.29563,1.81688,6.27656,-1.50025,21.5396,4,0,0,0
0,1405778118,38711,29.0591,16.7295,-38.0057,50.6827,-8.68389,-0.784664,3.29559,9.3213,2.50791,4.42904,-1.35336,21.6218,8,0,0,0
0,1405778119,39717,29.3807,16.9242,-38.5241,51.3202,-8.69457,-0.790041,3.2868,9.3286,1.99079,3.83308,-2.39361,21.5893,8,0,0,0
0,1405778120,40723,29.5263,17.1343,-38.2093,51.2381,-8.71768,-0.762407,3.28482,9.34715,1.29546,4.87133,-1.32296,21.5987,8,0,0,0
0,1405778122,42274,29.8382,16.9997,-37.7598,51.0403,-8.67506,-0.675683,3.32695,9.31568,1.44103,4.37579,-1.43387,21.6916,2,0,0,0
0,1405778123,43282,29.238,16.8127,-38.1607,50.9291,-8.65294,-0.787191,3.29503,9.29249,0.456011,6.08045,0.0191773,21.7428,8,0,0,0
0,1405778124,44288,29.4996,16.9322,-38.4522,51.3371,-8.70965,-0.880207,3.26322,9.34245,3.72833,4.29354,-0.997716,21.7736,7,0,0,0
0,1405778125,45289,29.6902,17.1827,-38.5439,51.5983,-8.69078,-0.710389,3.37297,9.3494,2.21904,4.18313,-0.432677,21.8376,8,0,0,0
0,1405778126,46292,29.8209,16.8222,-38.107,51.229,-8.66499,-0.627417,3.34518,9.30946,1.96617,5.15325,-1.54957,21.9853,7,0,0,0
0,1405778127,47296,29.6217,16.8721,-37.6492,50.7895,-8.69411,-0.696636,3.29092,9.32218,0.75565,4.99449,-2.63869,21.9551,7,0,0,0
0,1405778128,48304,29.904,16.8357,-38.5728,51.629,-8.68208,-0.67538,3.30793,9.31542,0.98464,4.81725,-2.64307,21.8872,6,0,0,0
0,1405778129,49309,29.7155,16.8933,-37.9067,51.0423,-8.70026,-0.683715,3.34757,9.3471,2.65092,5.21965,-0.767997,21.8916,8,0,0,0
0,1405778130,50311,29.729,16.7463,-38.2579,51.2633,-8.67717,-0.675548,3.3422,9.32309,1.21639,4.60359,-0.647324,22.0071,8,0,0,0
0,1405778131,51316,29.7833,16.9401,-37.8253,51.0369,-8.65307,-0.672599,3.33033,9.29619,0.899791,5.16127,-1.9144,22.0322,8,0,0,0
0,1405778132,52320,29.8373,17.1694,-37.7238,51.0699,-8.70095,-0.634843,3.28756,9.32296,0.19223,4.37259,-1.52124,22.0746,8,0,0,0
0,1405778133,53326,29.7752,16.5007,-37.8915,50.9372,-8.69006,-0.706424,3.35804,9.34305,0.167328,4.85336,-2.64903,22.117,7,0,0,0
0,1405778134,54329,29.6561,17.0004,-37.8638,51.0114,-8.68305,-0.781734,3.37355,9.34811,1.18228,5.25105,-0.742418,22.1396,7,0,0,0
0,1405778135,55335,29.567,16.9637,-38.1003,51.1235,-8.71849,-0.685799,3.33805,9.36082,-0.800392,4.97023,-2.15879,22.1895,7,0,0,0
0,1405778136,56344,29.4875,16.8942,-37.9445,50.9383,-8.6979,-0.674729,3.27167,9.31733,1.83642,4.41134,-1.0222,22.162,6,0,0,0
0,1405778137,57355,29.422,16.8787,-38.0175,50.9498,-8.71575,-0.779451,3.27749,9.34418,0.695613,4.90343,-3.1717,22.2415,8,0,0,0
0,1405778138,58364,29.2698,16.9253,-38.3743,51.1446,-8.6803,-0.794127,3.31359,9.32514,2.5355,4.31586,-0.781398,22.2379,8,0,0,0
0,1405778139,59366,29.3582,17.2023,-37.8086,50.8657,-8.71217,-0.733683,3.26124,9.33144,1.83946,4.41473,-1.95194,22.2953,8,0,0,0
0,1405778140,60369,29.507,16.8597,-38.0467,51.0144,-8.72263,-0.677841,3.30975,9.35404,3.17582,3.84557,-1.35823,22.3643,6,0,0,0
0,1405778141,61380,29.5708,17.0671,-37.8179,50.9501,-8.738,-0.650773,3.20644,9.33045,0.861355,5.53598,-2.36786,22.3774,8,0,0,0
0,1405778143,63114,29.0169,16.7319,-37.9664,50.6299,-8.65685,-0.71323,3.37404,9.31847,2.75213,5.09533,-2.04092,22.4404,8,0,0,0
0,1405778144,64119,29.5277,17.198,-37.9836,51.0922,-8.69783,-0.729577,3.27098,9.32115,2.69936,5.1602,-0.454296,22.3399,8,0,0,0
0,1405778145,65125,29.4055,17.0253,-37.9878,50.9668,-8.67829,-0.787341,3.30695,9.32033,2.33496,4.46806,-1.88785,22.463,7,0,0,0
0,1405778146,66131,29.4894,17.0324,-37.7457,50.8376,-8.6856,-0.723164,3.29915,9.31918,2.06629,5.08816,-1.03907,22.4755,8,0,0,0
0,1405778147,67132,29.0485,16.6793,-38.2911,50.8746,-8.70532,-0.730765,3.26789,9.32715,2.43615,4.86777,-0.938021,22.3859,7,0,0,0
0,1405778148,68133,29.2111,16.7505,-37.8847,50.6865,-8.6722,-0.670908,3.2757,9.29448,1.98369,1.84,2.05534,22.5984,8,0,0,0
0,1405778149,69137,29.659,17.0573,-37.7181,50.9241,-8.69023,-0.716921,3.31512,9.32867,0.645578,7.28487,-3.0547,22.5627,8,0,0,0
0,1405778150,70672,29.5315,16.8134,-37.6793,50.7398,-8.70274,-0.752356,3.30058,9.33796,2.19439,5.13304,-2.56603,22.6189,3,0,0,0
0,1405778151,71680,30.4164,17.805,-37.954,51.7946,-8.68021,-0.72386,3.30351,9.31575,0.670275,5.57587,-1.52969,22.6779,6,0,0,0
0,1405778152,72681,29.5226,17.5108,-38.6227,51.6713,-8.69373,-0.727681,3.33927,9.34137,1.18323,5.24274,-0.56488,22.633,9,0,0,0
0,1405778153,73686,25.8646,15.6543,-42.867,52.4558,-8.6725,-0.746396,3.31862,9.31572,1.96475,4.86043,-2.64038,22.6539,7,0,0,0
0,1405778154,74689,25.4194,16.4535,-40.6145,50.6597,-8.67184,-0.66922,3.33131,9.31377,2.1942,5.57819,-1.55346,22.7,7,0,0,0
0,1405778155,75690,25.21,16.2627,-40.7009,50.5627,-8.67509,-0.734304,3.36331,9.33318,0.603268,5.51279,-2.39675,22.7272,7,0,0,0
0,1405778156,76692,25.6221,16.6766,-40.8924,51.0567,-8.67965,-0.708881,3.30846,9.31583,2.3344,4.57117,-2.2045,22.7174,8,0,0,0
0,1405778157,77700,25.6146,16.7999,-41.0429,51.2139,-8.71031,-0.745887,3.30106,9.34467,0.430651,5.35767,-1.52733,22.8105,8,0,0,0
0,1405778158,78703,25.617,16.9052,-40.7133,50.9861,-8.69004,-0.762591,3.29063,9.32344,0.786119,4.3783,-1.69144,22.8004,7,0,0,0
0,1405778159,79706,25.7711,16.7909,-40.5542,50.8992,-8.66906,-0.765231,3.31304,9.31206,2.18956,4.82106,0.265009,22.792,9,0,0,0
0,1405778160,80707,25.1791,15.9598,-40.6629,50.42,-8.69997,-0.689007,3.35049,9.34826,2.34991,5.36303,-2.1711,22.8201,8,0,0,0
0,1405778161,81713,25.7128,16.4823,-40.939,51.0765,-8.69236,-0.669984,3.31065,9.32557,0.692584,5.24731,-0.355718,22.8467,7,0,0,0
0,1405778162,82718,25.9961,16.6,-40.6137,50.9983,-8.68437,-0.648373,3.29267,9.31023,2.21891,5.61022,-1.52741,22.8958,8,0,0,0
0,1405778163,83719,25.5265,16.1025,-40.4915,50.5021,-8.67561,-0.687322,3.36628,9.33115,0.92213,5.12265,-0.7899,22.8582,7,0,0,0
0,1405778164,84724,25.6912,16.5142,-40.6828,50.8709,-8.71889,-0.669477,3.29332,9.34415,1.75404,5.08764,-0.738802,23.0523,8,0,0,0
0,1405778165,85727,25.7277,16.0019,-40.528,50.6014,-8.62998,-0.699285,3.37911,9.2943,2.22812,5.06245,-2.21098,22.9243,7,0,0,0
0,1405778166,86731,24.9933,16.8391,-40.6691,50.6181,-8.70474,-0.712338,3.31648,9.34232,1.32325,5.65533,-1.45319,22.9366,8,0,0,0
0,1405778167,87733,24.5454,16.003,-40.9716,50.3711,-8.70481,-0.766232,3.31071,9.34461,2.18043,4.59501,-1.8614,23.0696,7,0,0,0
0,1405778168,88746,25.1963,16.7199,-40.6973,50.7018,-8.71552,-0.817347,3.2996,9.35499,2.62429,4.46561,-0.868545,22.9561,8,0,0,0
0,1405778169,89748,24.8687,16.1858,-40.8409,50.4818,-8.71088,-0.753818,3.27342,9.33611,2.33723,4.69803,-3.18604,23.1027,8,0,0,0
0,1405778170,90752,24.5181,15.9848,-41.0732,50.4347,-8.69438,-0.815266,3.30608,9.3374,2.03024,4.34515,-1.77699,23.1135,7,0,0,0
0,1405778171,91757,24.4038,16.1088,-41.3494,50.644,-8.66948,-0.769085,3.3337,9.32014,2.65548,5.97432,-2.58124,23.1718,8,0,0,0
0,1405778172,92758,24.5345,15.9436,-40.3401,49.8343,-8.70851,-0.769872,3.30576,9.3466,0.726397,4.79007,-2.0895,23.1918,7,0,0,0
0,1405778173,93764,24.8751,16.2039,-40.6814,50.3618,-8.72719,-0.748516,3.30382,9.36159,1.24789,4.66975,-1.74033,23.1571,8,0,0,0
0,1405778174,94766,24.7613,16.2283,-40.8596,50.4578,-8.6896,-0.749372,3.3135,9.33006,1.65067,2.95878,-1.89309,23.2074,7,0,0,0
0,1405778175,95771,24.8881,16.1597,-40.9561,50.5762,-8.70565,-0.767653,3.33079,9.35264,2.71305,4.20026,-2.71194,23.2003,8,0,0,0
0,1405778176,96772,24.5197,16.0168,-40.8224,50.2416,-8.76045,-0.83708,3.26315,9.38586,1.879,5.35547,-2.18248,23.3384,8,0,0,0
0,1405778178,98560,24.0959,15.6777,-40.7695,49.8854,-8.70926,-0.761612,3.27427,9.33553,1.00518,5.46732,-1.25658,23.2279,6,0,0,0
0,1405778179,99562,24.2446,16.1734,-41.0334,50.3301,-8.72545,-0.760946,3.2913,9.35656,1.94496,3.95259,-1.0021,23.3185,7,0,0,0
0,1405778180,100568,24.4089,16.2618,-40.9983,50.4093,-8.69783,-0.780391,3.27339,9.32612,1.91491,5.56681,-0.333759,23.4119,7,0,0,0
0,1405778181,101571,24.3329,16.0358,-40.9565,50.266,-8.71519,-0.800783,3.28775,9.34907,1.82981,4.84304,-2.26525,23.5302,7,0,0,0
0,1405778182,102582,24.6503,15.9478,-40.8021,50.2671,-8.65722,-0.583071,3.28759,9.27877,6.11631,2.3059,0.966706,23.4945,7,0,0,0
0,1405778183,103583,24.6933,15.7016,-41.1271,50.4751,-8.67644,-0.669167,3.31669,9.31283,1.79539,4.95364,-1.14927,23.5328,8,0,0,0
0,1405778184,104585,25.3612,15.8851,-40.6245,50.4567,-8.66761,-0.626651,3.3741,9.32227,2.58686,4.77027,-1.87281,23.4991,7,0,0,0
0,1405778185,105589,24.9265,15.5858,-41.4,50.7761,-8.70782,-0.62382,3.3392,9.34695,2.8623,5.00491,-2.73912,23.514,7,0,0,0
0,1405778186,106590,24.9305,16.1732,-41.139,50.7495,-8.68073,-0.775752,3.33282,9.33083,1.94644,4.59892,-4.7299,23.5692,8,0,0,0
0,1405778187,107592,24.934,15.467,-41.2457,50.6176,-8.66548,-0.717136,3.34286,9.31555,2.87066,4.92592,-0.785228,23.5692,5,0,0,0
0,1405778188,108599,25.1375,15.8981,-40.606,50.3338,-8.6813,-0.673834,3.31202,9.31603,0.437077,5.7158,-2.51374,23.671,8,0,0,0
0,1405778189,109608,24.8064,15.6854,-40.9384,50.372,-8.69155,-0.667543,3.29263,9.31827,1.77602,4.76544,-1.01254,23.7007,7,0,0,0
0,1405778190,110614,24.8279,15.6431,-40.8529,50.3,-8.67554,-0.728173,3.33808,9.32405,2.5538,6.28848,-1.15059,23.7651,8,0,0,0
0,1405778191,111621,25.0605,15.4883,-40.9175,50.4198,-8.6928,-0.743906,3.3287,9.33801,2.4124,4.19656,-1.4418,23.7365,8,0,0,0
0,1405778192,112633,25.0204,16.2076,-40.8293,50.5543,-8.67583,-0.751747,3.28799,9.30839,2.66059,5.33706,-2.04626,23.7184,8,0,0,0
0,1405778193,113639,25.1661,16.4846,-40.7794,50.6757,-8.67825,-0.748795,3.30682,9.31707,2.09746,4.99639,-1.84278,23.7655,7,0,0,0
0,1405778194,114645,25.4272,16.3294,-40.5345,50.5592,-8.69431,-0.713682,3.31232,9.33123,1.42361,5.60622,-2.0605,23.9359,7,0,0,0
0,1405778195,115652,25.1689,16.1623,-40.3851,50.2559,-8.68529,-0.744787,3.28537,9.31572,2.33152,3.73771,-1.92434,23.8406,8,0,0,0
0,1405778196,116658,25.1196,15.957,-40.6513,50.3801,-8.67629,-0.723559,3.33386,9.32288,2.36999,4.7743,-1.41127,23.8494,7,0,0,0
0,1405778197,117663,25.0935,16.2604,-41.0433,50.7803,-8.68565,-0.742391,3.32753,9.33082,2.19931,5.55015,-1.2889,23.844,7,0,0,0
0,1405778198,118670,24.9692,16.049,-40.7812,50.4394,-8.68905,-0.734785,3.31079,9.32742,2.71319,4.13277,-0.732533,24.0466,8,0,0,0
0,1405778199,119675,24.6033,15.7958,-40.5689,50.0066,-8.70791,-0.709191,3.29424,9.33717,1.93378,5.77249,-2.13878,23.915,8,0,0,0
0,1405778200,120680,24.7588,16.0559,-40.9939,50.5103,-8.68114,-0.730308,3.30282,9.31688,1.35741,4.46103,-0.207762,23.8451,8,0,0,0
0,1405778201,121687,24.9527,16.3727,-41.061,50.7613,-8.68381,-0.738482,3.32863,9.32919,0.949056,5.57196,-1.73105,24.01,8,0,0,0
0,1405778202,122688,25.2741,16.4512,-40.8096,50.7429,-8.70854,-0.740434,3.29585,9.34074,1.91287,4.84509,-1.26652,23.9531,7,0,0,0
0,1405778203,123691,24.8431,16.5089,-40.7622,50.5102,-8.68,-0.700735,3.32022,9.31972,2.41622,5.29135,-1.41234,24.047,7,0,0,0
0,1405778204,124694,24.651,16.2679,-40.976,50.5109,-8.69377,-0.700818,3.3421,9.34036,2.13073,4.7113,-3.31631,24.0294,7,0,0,0
0,1405778205,125701,24.7552,16.3302,-41.1324,50.7087,-8.70726,-0.735688,3.26177,9.3272,1.98466,4.98118,-1.84542,24.1512,8,0,0,0
0,1405778206,126707,25.1428,16.4393,-40.7424,50.6197,-8.68477,-0.72779,3.31868,9.32569,0.58691,5.50805,-1.72839,24.2061,8,0,0,0
0,1405778207,127710,24.7498,16.1347,-41.0792,50.6002,-8.70381,-0.723735,3.34388,9.35209,1.51234,5.3833,-2.82779,24.1674,8,0,0,0
0,1405778208,128717,24.796,16.2045,-40.9403,50.5325,-8.68617,-0.724137,3.34943,9.3377,1.41177,6.10766,-1.44149,24.1414,8,0,0,0
0,1405778209,129720,24.9625,16.308,-40.936,50.6442,-8.69896,-0.722148,3.30322,9.33299,1.50845,3.72196,-0.0642863,24.1956,8,0,0,0
0,1405778210,130722,24.9777,16.2966,-40.354,50.1788,-8.69056,-0.740106,3.31117,9.32939,1.80506,5.76699,-1.97331,24.1808,8,0,0,0
0,1405778211,131727,24.7044,16.0283,-40.5435,50.1098,-8.71165,-0.719315,3.33026,9.3542,1.71778,5.26008,-0.909069,24.1329,7,0,0,0
0,1405778212,132731,25.0786,16.3979,-40.7899,50.6126,-8.68621,-0.754339,3.3188,9.32919,2.7363,4.75443,-1.35814,24.219,7,0,0,0
0,1405778213,133739,24.793,16.1358,-40.7619,50.3646,-8.67368,-0.7533,3.32858,9.32092,1.42377,5.28182,-1.59938,24.1639,7,0,0,0
0,1405778214,134744,24.8526,16.2938,-40.7691,50.4506,-8.67284,-0.748315,3.30939,9.3129,1.60763,5.98675,-1.20545,24.2652,9,0,0,0
0,1405778215,135746,25.0946,16.5961,-41.0725,50.9128,-8.68703,-0.81086,3.32548,9.33706,1.64753,6.3406,-0.0353169,24.3255,7,0,0,0
0,1405778216,136753,24.7573,16.1198,-40.7973,50.3706,-8.69641,-0.71721,3.2893,9.32531,1.79393,4.52891,-2.02251,24.314,9,0,0,0
0,1405778217,137754,24.713,16.2927,-40.8798,50.4712,-8.68191,-0.751314,3.31604,9.32396,2.22836,5.41834,-1.47236,24.3619,7,0,0,0
0,1405778218,138763,24.7681,16.111,-40.7411,50.3275,-8.70487,-0.751465,3.31159,9.34377,1.03562,5.54133,-1.37557,24.5127,7,0,0,0
0,1405778219,139765,24.765,16.1672,-40.6827,50.2968,-8.68456,-0.752045,3.30845,9.32379,1.24376,4.87817,-2.86816,24.4465,7,0,0,0
0,1405778220,140772,24.6115,16.2629,-41.084,50.5777,-8.70039,-0.727908,3.31048,9.33733,1.70534,5.52842,-1.5339,24.4882,7,0,0,0
0,1405778221,141779,25.1172,16.4004,-41.0609,50.8512,-8.67548,-0.728131,3.29467,9.30855,1.96783,5.15161,-1.7343,24.435,7,0,0,0
0,1405778222,142783,25.2858,16.0878,-40.969,50.7607,-8.68042,-0.731873,3.32754,9.32512,0.12608,5.16224,-2.31548,24.3442,7,0,0,0
0,1405778223,143791,25.0443,15.9438,-40.847,50.4965,-8.70278,-0.754082,3.31934,9.34479,1.64458,6.45654,-1.56743,24.3858,7,0,0,0
0,1405778224,144795,25.1219,16.323,-40.9209,50.7156,-8.67413,-0.741619,3.31972,9.31724,3.94445,5.58825,-3.18412,24.4434,8,0,0,0
0,1405778225,145802,24.898,16.6473,-40.5845,50.4395,-8.69641,-0.745425,3.29283,9.32877,0.441914,6.2469,-1.50846,24.5246,7,0,0,0
0,1405778226,146805,25.2186,16.4613,-41.0951,50.9486,-8.68255,-0.735656,3.29441,9.31564,2.11413,5.383,-1.81609,24.5695,8,0,0,0
0,1405778227,147806,24.8289,16.2905,-40.7773,50.4444,-8.68603,-0.727996,3.28967,9.31661,1.3585,5.68983,-2.69186,24.655,6,0,0,0
0,1405778228,148808,25.052,16.0425,-40.7454,50.4495,-8.67913,-0.740274,3.3212,9.32232,1.91433,6.05149,-2.6315,24.6639,7,0,0,0
0,1405778229,149809,25.212,16.3432,-40.7762,50.6502,-8.68159,-0.734518,3.32098,9.32408,2.66072,5.49622,-2.23625,24.5888,8,0,0,0
0,1405778230,150817,25.4013,16.388,-40.8688,50.8335,-8.68427,-0.746536,3.28698,9.31548,0.726876,5.21313,-0.182455,24.7398,7,0,0,0
0,1405778231,151820,24.8085,16.2883,-40.7588,50.4188,-8.6993,-0.732218,3.29359,9.33068,1.30931,6.4984,-2.53789,24.7892,8,0,0,0
0,1405778232,152821,25.0672,16.6432,-40.7298,50.6387,-8.68264,-0.712236,3.2986,9.31538,1.47279,5.37783,-2.83232,24.7281,7,0,0,0
0,1405778233,153828,25.2072,16.4384,-40.8976,50.7764,-8.68049,-0.740262,3.33678,9.32915,1.53021,5.53956,-2.53568,24.9709,8,0,0,0
0,1405778234,154834,25.0838,16.3665,-40.5909,50.4448,-8.69707,-0.749149,3.30705,9.3347,1.57471,4.94577,-0.996538,24.9193,7,0,0,0
0,1405778235,155836,25.3291,16.6561,-40.6056,50.6735,-8.69891,-0.743209,3.30532,9.33534,1.14665,5.36338,-1.62432,24.7713,8,0,0,0
0,1405778236,156840,25.1699,16.1545,-40.5411,50.3793,-8.68565,-0.731641,3.31659,9.32607,1.39837,5.94813,-1.71373,25.015,7,0,0,0
0,1405778237,157848,24.8072,16.2564,-40.7279,50.3829,-8.67984,-0.748726,3.31252,9.32057,0.567899,5.53786,-0.901283,24.9895,7,0,0,0
0,1405778238,158853,24.7517,16.1092,-40.6687,50.2603,-8.70504,-0.699715,3.31869,9.34243,2.00638,4.44333,-2.20606,25.0074,8,0,0,0
0,1405778239,159856,25.0839,16.1896,-40.5435,50.3496,-8.67278,-0.734009,3.29396,9.30623,2.33641,4.7511,-2.27253,25.0096,7,0,0,0
0,1405778240,160859,25.1825,16.8729,-40.5694,50.6432,-8.64991,-0.763107,3.33605,9.30228,1.5362,5.74342,-1.17943,24.9769,8,0,0,0
0,1405778241,161862,24.9988,16.1071,-40.7449,50.4433,-8.70772,-0.745367,3.31233,9.3462,1.88089,5.5439,-2.16999,25.0324,8,0,0,0
0,1405778242,162870,25.0466,16.3474,-40.5228,50.3653,-8.69243,-0.730995,3.30874,9.32955,1.03347,6.28828,-0.922903,25.148,8,0,0,0
0,1405778243,163879,25.2545,16.2054,-40.8702,50.7028,-8.71747,-0.722342,3.31957,9.35604,1.79114,4.90499,-0.82965,25.1737,8,0,0,0
0,1405778244,164886,25.294,16.7922,-40.5575,50.6624,-8.68787,-0.747043,3.2995,9.32329,2.51845,6.04644,-1.24085,25.1627,7,0,0,0
0,1405778245,165888,24.9241,16.2167,-40.3806,50.1476,-8.69356,-0.715415,3.31732,9.33244,2.14064,5.20547,-1.17525,25.2584,8,0,0,0
0,1405778246,166896,25.4884,15.9488,-40.5125,50.4508,-8.70158,-0.738205,3.29399,9.33342,2.31153,5.70095,-3.07487,25.2258,7,0,0,0
0,1405778247,167914,25.0175,16.1159,-40.5573,50.304,-8.69299,-0.735929,3.30682,9.32978,2.24653,6.74265,-2.84242,25.1149,9,0,0,0
0,1405778248,168922,25.1996,16.3127,-40.3194,50.2671,-8.68261,-0.734987,3.31334,9.32234,1.35883,3.87991,-2.6359,25.2176,8,0,0,0
0,1405778249,169926,25.2963,16.3805,-40.4884,50.4731,-8.68214,-0.747741,3.30808,9.32105,2.16988,5.87588,-2.81899,25.2924,7,0,0,0
0,1405778250,170933,25.2277,16.3747,-40.3976,50.364,-8.68213,-0.713994,3.32237,9.32348,1.22475,5.44281,-0.892925,25.2428,8,0,0,0
0,1405778251,171936,25.125,16.5651,-40.9011,50.7796,-8.71042,-0.732991,3.31551,9.34886,1.6588,5.93732,-3.09171,25.2679,7,0,0,0
0,1405778252,172939,25.0718,16.5334,-40.5743,50.4799,-8.68635,-0.731932,3.29341,9.31853,1.93242,6.05955,-1.00881,25.3672,7,0,0,0
0,1405778253,173942,25.493,16.2481,-40.7708,50.7558,-8.67816,-0.753776,3.32377,9.32342,2.59119,4.97188,-1.3436,25.3556,7,0,0,0
0,1405778254,174943,24.9894,15.9533,-40.795,50.4302,-8.676,-0.746238,3.29327,9.30997,0.0158499,5.18475,-1.73386,25.391,7,0,0,0
0,1405778255,175950,25.2245,16.3997,-40.0356,50.0807,-8.69556,-0.739846,3.29644,9.32881,1.61828,5.26496,-1.79843,25.3714,8,0,0,0
0,1405778256,176956,24.8799,16.4283,-40.3379,50.1602,-8.67373,-0.761931,3.32935,9.32195,3.68184,4.74015,-2.81982,25.4951,8,0,0,0
0,1405778257,177967,25.248,16.1151,-40.5977,50.4512,-8.69981,-0.728255,3.30736,9.33572,3.01922,5.52433,-2.72399,25.4544,8,0,0,0
0,1405778258,178971,25.0742,16.3166,-40.523,50.3692,-8.68125,-0.729042,3.30749,9.31853,1.04452,5.48645,-1.05763,25.4135,7,0,0,0
0,1405778259,179980,25.4529,16.752,-40.4372,50.6324,-8.67869,-0.741627,3.3336,9.32644,2.3194,4.87392,-2.22343,25.5562,9,0,0,0
0,1405778260,180984,24.9199,16.2067,-40.3915,50.1511,-8.69364,-0.734366,3.33538,9.34042,2.69568,5.09916,-1.53615,25.4782,8,0,0,0
0,1405778261,181988,25.3069,16.3841,-40.3354,50.357,-8.68442,-0.714886,3.31625,9.32351,2.28615,5.54379,-0.789291,25.5731,8,0,0,0
0,1405778262,182993,25.1688,16.1715,-40.6664,50.4851,-8.70931,-0.718556,3.28429,9.33569,1.62182,4.81091,-1.09852,25.5458,7,0,0,0
0,1405778263,183996,25.5427,16.4717,-40.5076,50.642,-8.66641,-0.744101,3.30973,9.3067,3.19766,5.24129,-1.1295,25.5776,8,0,0,0
0,1405778265,185005,25.4775,16.5078,-40.4622,50.5845,-8.68695,-0.751538,3.30677,9.32537,1.27221,6.97677,-1.01986,25.5894,8,0,0,0
0,1405778266,186012,25.013,16.0823,-40.5013,50.2459,-8.69084,-0.732619,3.2932,9.3227,1.34156,5.6476,-2.31233,25.5822,8,0,0,0
0,1405778267,187022,25.0906,16.3817,-40.5273,50.402,-8.68141,-0.738899,3.29362,9.31455,1.41853,5.12872,-1.22451,25.6447,7,0,0,0
0,1405778268,188025,25.197,15.9143,-40.5306,50.3079,-8.68538,-0.735575,3.30624,9.32245,2.87448,5.42658,-2.59299,25.6332,8,0,0,0
0,1405778269,189029,25.1367,16.7362,-40.8942,50.8359,-8.68434,-0.747065,3.32903,9.3305,2.75062,4.58092,-1.77401,25.6858,7,0,0,0
0,1405778270,190034,25.2147,16.5181,-40.7297,50.6709,-8.70078,-0.722067,3.29411,9.33146,1.67896,6.32929,-0.496387,25.7028,7,0,0,0
0,1405778271,191041,24.9741,16.5139,-40.1971,50.1221,-8.69414,-0.734853,3.30663,9.3307,3.14352,5.39499,-3.00465,25.7098,6,0,0,0
0,1405778272,192049,24.9779,16.5435,-40.5967,50.4547,-8.69209,-0.758297,3.30011,9.32835,1.35777,5.79162,-3.14817,25.6771,6,0,0,0
0,1405778273,193053,25.0285,16.5097,-40.2965,50.2275,-8.70345,-0.743655,3.30553,9.33968,-0.872395,5.2514,-1.43426,25.7642,6,0,0,0
0,1405778274,194054,25.2985,16.2011,-40.63,50.5301,-8.67452,-0.745982,3.31515,9.31633,1.25689,4.93195,-3.2574,25.7834,7,0,0,0
0,1405778275,195062,24.8657,16.4173,-40.245,50.0749,-8.70476,-0.733389,3.34047,9.35251,-0.0676587,5.33201,-1.92816,25.7571,8,0,0,0
0,1405778276,196066,25.2077,16.5418,-40.4232,50.4291,-8.68208,-0.73074,3.32026,9.32398,0.992663,5.16917,-3.85834,25.8097,7,0,0,0
0,1405778277,197073,25.1479,16.5956,-40.4289,50.4215,-8.70542,-0.7316,3.30409,9.34005,1.89572,5.77974,-2.80427,25.8811,7,0,0,0
0,1405778278,198080,25.0799,16.0885,-40.5212,50.2972,-8.68063,-0.736213,3.32291,9.324,1.37859,4.39541,-2.5233,25.9555,8,0,0,0
0,1405778279,199088,25.1668,16.163,-40.6555,50.4726,-8.69104,-0.746058,3.3179,9.33269,0.260451,5.80733,-1.43899,25.9516,8,0,0,0
0,1405778280,200089,25.1579,16.03,-40.3219,50.1571,-8.69511,-0.751538,3.30642,9.33286,2.11434,5.40258,-0.667302,25.8556,6,0,0,0
0,1405778281,201094,25.0356,16.0966,-40.6849,50.4098,-8.68359,-0.742477,3.30619,9.32132,2.50045,5.82854,-2.0171,26.0334,8,0,0,0
0,1405778282,202100,24.9733,16.3707,-40.5039,50.3213,-8.67016,-0.720285,3.2914,9.30182,1.53333,5.95138,-1.48264,25.9587,7,0,0,0
0,1405778283,203107,25.346,16.2801,-40.5039,50.478,-8.69677,-0.73106,3.31389,9.33542,1.22555,6.34143,-0.947395,26.0073,8,0,0,0
0,1405778284,204114,25.1946,16.2848,-40.6104,50.4893,-8.68267,-0.73284,3.28582,9.31248,2.17567,5.96607,-2.10749,26.0662,7,0,0,0
0,1405778285,205115,25.2023,16.6914,-40.7029,50.7,-8.69726,-0.740416,3.31717,9.33778,1.22358,5.81798,-2.04016,26.0608,8,0,0,0
0,1405778286,206119,25.4719,17.0506,-39.9948,50.3897,-8.68489,-0.731888,3.29914,9.31919,0.304163,5.40497,-2.23784,25.9901,8,0,0,0
0,1405778287,207124,25.5009,16.4698,-40.4411,50.5671,-8.68792,-0.761799,3.2763,9.31635,0.664862,5.66682,-1.95906,26.0073,7,0,0,0
0,1405778288,208131,25.453,16.7071,-40.8415,50.9412,-8.69707,-0.741544,3.3151,9.33696,1.45979,5.91845,-3.0479,26.0773,7,0,0,0
0,1405778289,209139,25.2124,16.6838,-40.3614,50.4287,-8.6779,-0.747231,3.31922,9.32103,2.95265,5.16044,-2.11338,26.2563,7,0,0,0
0,1405778290,210141,25.0353,16.0271,-40.3097,50.085,-8.68181,-0.737461,3.30543,9.31899,1.89503,6.36573,-2.3547,26.2235,8,0,0,0
0,1405778291,211145,25.1675,16.6194,-40.0711,50.1528,-8.675,-0.729684,3.2995,9.30993,2.79715,5.99499,-3.69288,26.16,8,0,0,0
0,1405778292,212147,25.3215,16.7383,-40.516,50.625,-8.69316,-0.738006,3.30881,9.3308,1.99119,5.13045,-3.85178,26.2905,8,0,0,0
0,1405778293,213148,24.9484,16.0425,-40.6758,50.3418,-8.67627,-0.741596,3.3002,9.3123,2.74334,4.93181,-0.640879,26.3589,8,0,0,0
0,1405778294,214154,25.2808,16.0939,-40.5079,50.3887,-8.68152,-0.749436,3.30954,9.32113,1.15134,4.93164,-1.03265,26.3049,7,0,0,0
0,1405778295,215156,25.413,16.2888,-40.4124,50.4411,-8.67443,-0.738657,3.35156,9.32868,2.03392,5.50936,-1.9289,26.2225,8,0,0,0
0,1405778296,216160,25.2511,16.5705,-40.2459,50.3183,-8.69535,-0.729581,3.32129,9.33662,1.9874,5.01028,-2.55797,26.2921,7,0,0,0
0,1405778297,217167,25.0964,16.3679,-40.5925,50.4529,-8.67906,-0.746858,3.308,9.31809,1.83877,5.3466,-1.45342,26.47,8,0,0,0
0,1405778298,218174,25.3344,16.5356,-39.9968,50.1498,-8.6888,-0.72928,3.30153,9.32347,3.03373,5.91154,-2.39667,26.4925,7,0,0,0
0,1405778299,219180,25.1474,16.2854,-40.518,50.3916,-8.70211,-0.735135,3.29638,9.33452,1.65287,6.07151,-1.73086,26.3926,8,0,0,0
0,1405778300,220184,25.0585,16.5442,-40.3056,50.2611,-8.68443,-0.751113,3.32233,9.32852,1.35678,6.74688,-1.80526,26.4657,7,0,0,0
0,1405778301,221188,25.4215,17.104,-40.3358,50.6535,-8.68678,-0.728312,3.29161,9.31801,2.00675,5.66584,-0.345483,26.4241,8,0,0,0
0,1405778302,222189,25.203,16.5338,-40.5418,50.5193,-8.67582,-0.743309,3.30637,9.3142,1.53639,6.10935,-3.67678,26.5004,8,0,0,0
0,1405778303,223196,25.1639,16.6667,-40.2995,50.3493,-8.69335,-0.72834,3.3166,9.33299,1.54766,5.49174,-1.201,26.6193,7,0,0,0
0,1405778304,224203,25.084,16.1369,-40.4168,50.2308,-8.67919,-0.738712,3.26981,9.30407,2.18842,5.45897,-2.76382,26.6009,7,0,0,0
0,1405778305,225206,25.1643,16.3027,-40.4486,50.3499,-8.67744,-0.744428,3.30895,9.31672,0.592835,4.86719,-2.35221,26.5697,7,0,0,0
0,1405778306,226208,25.4181,16.3239,-40.6151,50.6175,-8.68749,-0.749889,3.30913,9.32658,0.678865,6.17718,-0.814402,26.5561,6,0,0,0
0,1405778307,227213,25.4094,16.2619,-40.3234,50.3593,-8.69032,-0.736277,3.31763,9.33115,1.22062,6.42779,-0.778856,26.5778,8,0,0,0
0,1405778308,228215,24.9342,16.0929,-40.5884,50.2803,-8.69441,-0.721654,3.29431,9.32556,1.49718,4.95111,-1.59803,26.6585,7,0,0,0
0,1405778309,229219,25.4045,16.5541,-40.1066,50.2789,-8.69909,-0.749745,3.31988,9.34119,2.5475,5.37733,-1.68367,26.7014,8,0,0,0
0,1405778310,230221,25.12,16.0566,-40.2615,50.0981,-8.67319,-0.752004,3.3211,9.31769,1.38837,6.18299,-2.59047,26.6587,8,0,0,0
0,1405778311,231231,25.3083,16.5049,-40.6374,50.6391,-8.68581,-0.745656,3.30651,9.32375,1.42784,5.40775,-2.65435,26.7071,7,0,0,0
0,1405778312,232237,25.0168,15.8671,-40.5138,50.1894,-8.68097,-0.741396,3.29605,9.31519,0.83419,5.31217,-0.523699,26.7087,7,0,0,0
0,1405778313,233238,25.1868,16.3093,-40.1655,50.1362,-8.69142,-0.742877,3.30763,9.32915,1.90249,6.95773,-1.07101,26.7051,7,0,0,0
0,1405778314,234239,25.4426,16.4494,-40.3893,50.4896,-8.69718,-0.735565,3.30691,9.33369,2.49485,5.56744,-0.75879,26.78,8,0,0,0
0,1405778315,235241,25.2357,16.4889,-40.1181,50.1816,-8.68672,-0.740887,3.31643,9.32774,1.01991,5.88208,-2.2056,26.8767,7,0,0,0
0,1405778316,236248,25.0878,16.4353,-40.559,50.4435,-8.66705,-0.793019,3.30563,9.30987,2.68177,4.49285,-2.43779,26.8527,7,0,0,0
0,1405778317,237254,24.8761,16.7297,-40.037,50.0166,-8.69893,-0.733361,3.3185,9.33925,2.21211,5.51584,-2.31795,26.8819,8,0,0,0
0,1405778318,238262,25.3487,16.3217,-40.6531,50.6126,-8.71947,-0.737424,3.31998,9.35923,1.35098,5.11635,-2.92611,26.8691,7,0,0,0
0,1405778319,239266,25.1036,16.6173,-40.0151,50.0753,-8.69902,-0.749784,3.32544,9.34311,2.06656,5.04689,-1.98575,26.9258,8,0,0,0
0,1405778320,240275,25.5584,16.7141,-40.1728,50.4623,-8.69293,-0.7296,3.28938,9.32305,0.209889,6.11082,-2.74494,26.8921,7,0,0,0
0,1405778321,241285,25.1945,16.6075,-40.487,50.4952,-8.69272,-0.743319,3.31523,9.3331,1.2817,6.08431,-1.76277,26.9774,7,0,0,0
0,1405778322,242286,25.2821,16.1058,-40.2562,50.1911,-8.67378,-0.751802,3.33554,9.32339,2.1994,5.64642,-1.22263,26.8782,7,0,0,0
0,1405778323,243296,24.7558,16.117,-40.4643,50.0995,-8.68009,-0.732479,3.28291,9.30903,2.04659,6.45044,-2.61221,27.0634,8,0,0,0
0,1405778324,244299,25.2792,16.2925,-40.6617,50.5752,-8.68023,-0.773363,3.3188,9.32517,0.272218,4.94156,-1.40644,26.9555,8,0,0,0
0,1405778325,245307,25.1308,16.5091,-40.4487,50.4004,-8.7016,-0.725041,3.3304,9.34533,1.96025,5.29643,-2.33432,27.0086,8,0,0,0
0,1405778326,246309,25.4326,16.5386,-40.5322,50.628,-8.68708,-0.741855,3.30995,9.32585,1.25659,5.22295,-1.54949,27.0997,8,0,0,0
0,1405778327,247316,25.1677,16.536,-39.8852,49.9769,-8.68611,-0.746524,3.28658,9.31705,1.53406,5.86234,-1.45356,27.0371,7,0,0,0
0,1405778328,248323,25.5101,16.3249,-40.62,50.668,-8.67272,-0.738407,3.30272,9.30964,1.81362,6.30498,-1.26819,27.0296,6,0,0,0
0,1405778329,249328,25.2342,16.2063,-40.6899,50.5478,-8.67174,-0.743159,3.30291,9.30917,1.98153,5.27014,-2.99199,27.0206,6,0,0,0
0,1405778330,250336,25.4033,16.3378,-40.1641,50.2535,-8.67337,-0.724132,3.3085,9.31117,0.167054,5.85974,-2.05294,27.0049,8,0,0,0
0,1405778331,251348,25.0454,16.4715,-40.2677,50.2003,-8.67851,-0.743827,3.3198,9.32153,2.49729,6.97878,-2.04342,27.0696,8,0,0,0
0,1405778332,252350,24.9477,16.5169,-40.0686,50.0069,-8.68526,-0.691377,3.30769,9.31947,2.20795,5.87491,-2.16226,27.031,8,0,0,0
0,1405778333,253355,25.2365,16.3765,-40.1456,50.1672,-8.68644,-0.751385,3.3088,9.32561,2.28481,5.56384,-1.49534,27.1639,8,0,0,0
0,1405778334,254359,24.8967,16.7567,-40.2311,50.1914,-8.68892,-0.756526,3.30175,9.32583,2.5003,5.99441,-1.56978,27.0811,6,0,0,0
0,1405778335,255370,25.2777,16.3848,-40.2953,50.3104,-8.70676,-0.7452,3.31357,9.34574,0.825073,6.01291,-2.46596,27.1374,9,0,0,0
0,1405778336,256373,24.9186,16.4003,-40.0566,49.9443,-8.63758,-0.737598,3.29891,9.27549,0.43781,4.79095,-1.65709,27.2107,6,0,0,0
0,1405778337,257379,25.2279,16.4079,-40.7396,50.6496,-8.69449,-0.727235,3.30599,9.3302,0.83886,6.81811,-2.64996,27.1886,8,0,0,0
0,1405778338,258384,25.2921,16.393,-40.6085,50.5715,-8.70167,-0.746778,3.32355,9.34466,2.76188,5.40209,-1.50365,27.1671,8,0,0,0
0,1405778339,259391,25.7136,16.0362,-40.2425,50.3767,-8.69005,-0.746112,3.31138,9.32947,2.03345,6.31495,-1.76109,27.2128,8,0,0,0
0,1405778340,260399,25.0137,15.855,-40.3384,50.0425,-8.6698,-0.735696,3.2999,9.3057,1.07175,6.32523,-2.15974,27.2677,8,0,0,0
0,1405778341,261406,25.3668,16.4805,-40.5319,50.5759,-8.67211,-0.729792,3.31712,9.31351,1.23005,7.04515,-1.27328,27.3016,8,0,0,0
0,1405778342,262410,24.9785,16.0358,-40.354,50.095,-8.69412,-0.756992,3.30125,9.33054,1.36351,6.27484,-2.98043,27.3567,7,0,0,0
0,1405778343,263413,25.1361,16.8065,-40.1064,50.2275,-8.68735,-0.765036,3.29952,9.32428,0.263277,6.24636,-2.73652,27.3845,8,0,0,0
0,1405778344,264415,25.266,16.563,-39.9518,50.0884,-8.71387,-0.730081,3.26866,9.33535,1.62479,6.10006,-1.80913,27.4038,7,0,0,0
0,1405778345,265419,25.1546,16.5714,-40.3567,50.359,-8.69912,-0.760765,3.29327,9.33269,2.21564,6.08734,-1.55678,27.5432,8,0,0,0
0,1405778346,266423,25.103,16.4901,-40.36,50.3092,-8.70279,-0.782356,3.28642,9.33548,0.996503,6.53185,-2.43586,27.401,7,0,0,0
0,1405778347,267427,25.1086,16.1375,-40.5116,50.3195,-8.6732,-0.77928,3.31998,9.31954,2.45736,5.23936,-3.51332,27.3674,8,0,0,0
0,1405778348,268436,25.1786,16.283,-40.5974,50.4702,-8.6828,-0.738808,3.29195,9.31525,0.79045,6.22564,-1.87301,27.5559,7,0,0,0
0,1405778349,269443,25.2266,16.1144,-39.9967,49.9579,-8.68232,-0.764765,3.30427,9.32125,0.765446,6.27984,-1.63892,27.5323,7,0,0,0
0,1405778350,270451,25.3028,16.5959,-40.2406,50.3484,-8.68087,-0.768624,3.29974,9.31862,2.3114,5.07311,-1.60655,27.495,7,0,0,0
0,1405778351,271459,25.1023,16.2676,-40.5254,50.3694,-8.70047,-0.71945,3.28629,9.3282,1.04342,6.31017,-2.65939,27.5443,8,0,0,0
0,1405778352,272467,25.4095,16.4029,-40.0291,50.17,-8.68946,-0.75139,3.27634,9.31696,1.36284,5.3683,-1.79725,27.5277,8,0,0,0
0,1405778353,273469,25.0647,16.2613,-40.357,50.2131,-8.68128,-0.770006,3.3015,9.31974,1.58355,6.50961,-1.19029,27.5595,7,0,0,0
0,1405778354,274471,25.5015,16.9381,-40.2027,50.532,-8.70029,-0.752212,3.32936,9.34588,-0.150879,6.10961,-2.10226,27.723,7,0,0,0
0,1405778355,275479,24.9967,16.2674,-40.0303,49.9188,-8.685,-0.738359,3.32053,9.32739,2.21118,5.14908,-2.81003,27.6279,8,0,0,0
0,1405778356,276487,25.165,16.2696,-39.8981,49.8983,-8.69667,-0.740522,3.31916,9.33795,2.71156,5.95915,-1.96763,27.5725,7,0,0,0
0,1405778357,277494,24.8687,16.1561,-40.1958,49.9517,-8.68251,-0.77795,3.29246,9.31834,1.23617,5.5717,-2.4603,27.7561,8,0,0,0
0,1405778358,278501,24.7852,15.8417,-40.247,49.8507,-8.68744,-0.724273,3.28391,9.31559,-0.255857,5.94452,-0.812698,27.8251,8,0,0,0
0,1405778359,279510,24.9965,16.7072,-40.2109,50.2083,-8.67461,-0.750818,3.28204,9.30507,1.25214,6.27523,-3.31105,27.7165,8,0,0,0
0,1405778360,280514,25.3556,16.167,-40.7707,50.6609,-8.68371,-0.738048,3.30589,9.32096,1.69508,6.73274,-1.4223,27.7629,8,0,0,0
0,1405778361,281526,25.2461,16.4938,-40.4251,50.4341,-8.68297,-0.75373,3.29974,9.31935,2.82687,4.9981,-2.27503,27.8276,7,0,0,0
0,1405778362,282532,25.111,16.5747,-39.9783,50.0354,-8.70756,-0.715932,3.3234,9.34768,1.48951,6.81973,-1.123,27.7897,7,0,0,0
0,1405778363,283536,25.0553,16.1004,-39.9484,49.8284,-8.69939,-0.741749,3.29525,9.33211,2.69057,6.51169,-1.36417,27.8234,7,0,0,0
0,1405778364,284542,25.135,16.3546,-40.6441,50.5092,-8.68785,-0.769098,3.29867,9.32478,1.64591,5.60421,-1.74515,27.9699,7,0,0,0
0,1405778365,285545,25.1193,16.611,-39.9952,50.0652,-8.70355,-0.741817,3.313,9.34227,2.9607,5.54667,-2.23132,27.9321,7,0,0,0
0,1405778366,286549,25.0107,15.8511,-40.4203,50.1058,-8.67185,-0.784777,3.27475,9.30273,2.17659,5.86961,-1.03756,27.7918,6,0,0,0
0,1405778367,287557,24.9892,16.1611,-40.2695,50.0727,-8.68619,-0.744811,3.28609,9.31681,2.59986,6.18532,-2.05256,27.9561,7,0,0,0
0,1405778368,288563,25.2327,16.5699,-40.2638,50.3232,-8.70663,-0.744577,3.32532,9.34973,0.0021409,5.95998,-1.60851,28.0256,7,0,0,0
0,1405778369,289577,24.7962,16.2715,-40.3167,50.0505,-8.68403,-0.751304,3.33289,9.33193,1.60845,6.05442,-1.30096,28.1177,8,0,0,0
0,1405778370,290580,24.8754,16.5005,-40.0982,49.9892,-8.67059,-0.73156,3.3395,9.32022,1.42854,6.67189,-1.72102,28.0458,8,0,0,0
0,1405778371,291583,25.3529,16.3671,-40.3058,50.3509,-8.70223,-0.758804,3.29678,9.33667,1.395,5.69027,-2.7761,28.058,8,0,0,0
0,1405778372,292584,24.9541,16.402,-40.2825,50.1439,-8.70023,-0.789307,3.31573,9.34404,1.70589,6.25782,-2.24415,27.9435,7,0,0,0
0,1405778373,293586,24.8658,15.96,-40.8164,50.3885,-8.69761,-0.759769,3.2677,9.32221,1.1001,5.3081,-2.42919,28.1378,7,0,0,0
0,1405778374,294593,25.0835,16.2432,-40.1427,50.0445,-8.69846,-0.69386,3.33715,9.34244,2.28156,6.28431,-2.31496,28.0724,7,0,0,0
0,1405778375,295602,25.2879,16.335,-40.3391,50.3344,-8.68238,-0.730498,3.27303,9.30752,0.908984,6.90424,-2.40537,28.1301,7,0,0,0
0,1405778376,296609,25.1,16.3105,-39.9517,49.9217,-8.67544,-0.738628,3.30553,9.31319,1.54738,5.09544,-1.8436,28.2031,8,0,0,0
0,1405778377,297613,24.77,16.5272,-39.8304,49.7309,-8.70764,-0.72656,3.32449,9.34897,0.940041,6.12643,-0.974959,28.1955,8,0,0,0
0,1405778378,298619,25.0409,16.3843,-40.5272,50.378,-8.71131,-0.753606,3.28896,9.34196,1.5314,4.81925,-2.5522,28.1439,8,0,0,0
0,1405778379,299624,25.0658,16.4447,-40.1627,50.1175,-8.65987,-0.717025,3.30394,9.29642,1.47024,6.63665,-2.17463,28.2555,8,0,0,0
0,1405778380,300632,25.1614,16.5488,-40.6972,50.6283,-8.71942,-0.806182,3.23795,9.33608,2.24519,6.28335,-1.12381,28.2463,8,0,0,0
0,1405778381,301635,25.1031,16.6101,-40.3573,50.3465,-8.65101,-0.803077,3.30984,9.29731,1.08023,6.64671,-1.08836,28.2485,8,0,0,0
0,1405778382,302637,25.3415,16.4591,-40.274,50.3497,-8.70722,-0.788433,3.27017,9.33442,1.33423,6.37613,-1.89321,28.2062,7,0,0,0
0,1405778383,303656,24.9082,16.5498,-40.4317,50.2895,-8.67573,-0.803953,3.30948,9.32026,1.08499,7.28744,-2.38063,28.3315,8,0,0,0
0,1405778384,304663,25.1063,16.2079,-40.4137,50.2622,-8.6824,-0.765743,3.3022,9.32067,1.18308,4.86334,-1.17455,28.2549,8,0,0,0
0,1405778385,305670,25.1327,16.2952,-40.8497,50.6545,-8.68165,-0.810458,3.36551,9.34636,2.22163,5.45728,-1.39836,28.2519,7,0,0,0
0,1405778386,306676,25.3405,16.2189,-40.0211,50.0687,-8.63586,-0.717599,3.39559,9.30715,2.2182,6.33658,-2.9162,28.2539,7,0,0,0
0,1405778387,307684,25.1588,16.419,-40.3092,50.2731,-8.72568,-0.733668,3.29848,9.35712,1.0157,5.55552,-1.92554,28.3183,8,0,0,0
0,1405778388,308685,24.8569,16.6884,-40.2952,50.2003,-8.7008,-0.795465,3.32413,9.34808,1.93036,6.75234,-2.41219,28.3724,8,0,0,0
0,1405778389,309692,24.8372,16.7357,-40.2658,50.1828,-8.71112,-0.69996,3.28721,9.33698,1.44726,5.63612,-1.45051,28.3877,7,0,0,0
0,1405778390,310700,24.9947,16.5201,-40.1217,50.0739,-8.70314,-0.756638,3.29396,9.33635,1.63334,6.03055,-2.20465,28.3704,7,0,0,0
0,1405778391,311707,24.9239,16.105,-40.2072,49.9719,-8.63809,-0.69996,3.38634,9.30451,1.88492,5.43486,-2.4131,28.3707,7,0,0,0
0,1405778392,312709,25.0017,16.4294,-40.1714,50.0874,-8.67014,-0.801747,3.32958,9.32203,0.177677,6.21674,-1.6098,28.4365,7,0,0,0
0,1405778393,313716,24.9782,16.6112,-40.3041,50.242,-8.69738,-0.718927,3.32084,9.33752,1.56326,5.88261,-2.66093,28.4469,8,0,0,0
0,1405778394,314721,24.8576,16.1254,-40.0844,49.8466,-8.69091,-0.748965,3.31063,9.33023,2.00449,6.78652,-0.81285,28.5025,7,0,0,0
0,1405778395,315731,24.903,16.5956,-40.2284,50.1387,-8.67336,-0.747329,3.28784,9.30567,1.87519,5.60227,-2.31668,28.4527,8,0,0,0
0,1405778396,316733,25.408,16.2838,-40.0858,50.1758,-8.68818,-0.766962,3.2798,9.31825,1.58197,6.60197,-2.61641,28.4436,7,0,0,0
0,1405778397,317734,25.1154,16.191,-40.2296,50.1134,-8.70255,-0.747723,3.30365,9.3385,2.69996,5.82398,-3.29121,28.4531,7,0,0,0
0,1405778398,318736,24.8765,16.4474,-40.1635,50.0247,-8.68812,-0.758763,3.30185,9.32531,1.51694,5.99637,-1.70355,28.4418,8,0,0,0
0,1405778399,319738,25.2001,16.1935,-40.6468,50.4919,-8.68979,-0.732166,3.33811,9.33764,1.63196,7.05301,-2.31321,28.4335,8,0,0,0
0,1405778400,320742,24.9821,16.409,-40.3552,50.2185,-8.69035,-0.746963,3.29521,9.32408,0.662958,5.79921,-3.03726,28.4602,8,0,0,0
0,1405778401,321749,24.9233,16.5768,-40.2268,50.1413,-8.69472,-0.744125,3.30751,9.33228,1.12369,6.39927,-1.35975,28.4967,7,0,0,0
0,1405778402,322753,25.0046,16.5073,-39.9412,49.9302,-8.70787,-0.758008,3.2976,9.34214,0.982,5.43539,-2.16236,28.475,7,0,0,0
0,1405778403,323760,25.0122,16.6676,-40.2693,50.2497,-8.66962,-0.735901,3.29847,9.30504,1.6524,7.00799,-2.34568,28.6839,7,0,0,0
0,1405778404,324770,25.5182,16.3176,-40.1851,50.3219,-8.68783,-0.739458,3.27828,9.31516,2.24894,6.29995,-1.67454,28.549,8,0,0,0
0,1405778405,325775,25.2108,16.1734,-40.4507,50.3331,-8.68276,-0.741885,3.31647,9.32415,0.904947,6.48467,-1.74107,28.5795,8,0,0,0
0,1405778406,326777,24.9517,16.0319,-39.9085,49.7222,-8.69172,-0.765393,3.27795,9.32077,1.21264,6.52433,-1.29351,28.5574,6,0,0,0
0,1405778407,327789,25.2384,16.4675,-40.1995,50.2409,-8.69925,-0.740778,3.28023,9.32661,1.77175,7.14413,-1.41827,28.6903,7,0,0,0
0,1405778408,328800,25.0551,16.4492,-39.968,49.9578,-8.68201,-0.756541,3.30926,9.32207,0.822938,5.0882,-2.37349,28.6138,8,0,0,0
0,1405778409,329804,24.9233,16.1422,-40.5349,50.2476,-8.68957,-0.737531,3.28971,9.32066,1.91602,5.79401,-1.85093,28.6388,7,0,0,0
0,1405778410,330805,25.0699,16.3366,-40.0795,50.0175,-8.73654,-0.7778,3.26294,9.35835,0.940309,6.8462,-3.07705,28.7384,7,0,0,0
0,1405778411,331813,24.9724,16.6148,-40.3134,50.2478,-8.67476,-0.945891,3.31072,9.33311,0.701836,6.03194,-2.22695,28.636,6,0,0,0
0,1405778412,332814,24.6815,16.2233,-40.314,49.9759,-8.67618,-0.745981,3.30959,9.3159,1.21687,5.58022,-1.98444,28.6303,7,0,0,0
0,1405778413,333821,25.0055,16.317,-39.859,49.8022,-8.68931,-0.801304,3.31199,9.33357,0.874989,5.86333,-0.736023,28.6521,7,0,0,0
0,1405778414,334824,24.6578,16.3627,-39.8828,49.6627,-8.68059,-0.752063,3.32338,9.3254,2.21375,5.94306,-2.23288,28.628,8,0,0,0
0,1405778415,335830,24.9587,16.5054,-40.3524,50.2362,-8.68382,-0.77594,3.28869,9.31806,-0.11192,6.84997,-1.90173,28.6967,7,0,0,0
0,1405778416,336840,24.8394,16.114,-40.2756,49.9878,-8.70172,-0.840024,3.30425,9.34579,1.63003,5.55281,-2.60578,28.7859,8,0,0,0
0,1405778417,337842,24.6987,16.6587,-40.0721,49.9331,-8.7093,-0.7505,3.27407,9.3346,1.53481,6.50706,-1.05692,28.7112,7,0,0,0
0,1405778418,338843,25.1765,17.0851,-39.9724,50.2349,-8.7008,-0.783956,3.31993,9.34561,-0.267862,5.45394,-1.67553,28.7413,7,0,0,0
0,1405778419,339856,25.0173,16.4012,-40.5297,50.3738,-8.69906,-0.754244,3.29641,9.33321,2.67558,7.28003,-2.13767,28.8215,8,0,0,0
0,1405778420,340863,24.72,16.0938,-40.1854,49.8494,-8.68295,-0.798298,3.30963,9.32655,2.37133,4.33637,-1.56142,28.903,8,0,0,0
0,1405778421,341871,24.8632,16.723,-40.5358,50.4083,-8.66664,-0.775863,3.34892,9.32351,0.622746,6.03379,-1.94405,28.8707,8,0,0,0
0,1405778422,342876,25.1073,16.3969,-40.3063,50.2378,-8.69852,-0.747282,3.28748,9.329,1.57223,5.59014,-0.822844,28.8073,8,0,0,0
0,1405778423,343879,25.2676,16.4203,-40.1722,50.2184,-8.68636,-0.774844,3.29874,9.32389,2.84332,5.1691,-1.58659,28.9616,8,0,0,0
0,1405778424,344881,24.8844,16.5056,-40.2112,50.086,-8.69589,-0.800753,3.28499,9.3301,0.735819,6.43606,-2.99536,28.9034,8,0,0,0
0,1405778425,345882,25.0285,16.6287,-40.3378,50.2999,-8.74018,-0.732997,3.228,9.34602,1.7046,5.54758,-2.30133,28.9868,8,0,0,0
0,1405778426,346886,24.691,16.4254,-39.9255,49.7341,-8.69467,-0.696315,3.30411,9.32734,2.73714,6.29321,-0.406334,28.9768,7,0,0,0
0,1405778427,347892,24.8861,16.6455,-40.0741,50.0232,-8.69524,-0.768589,3.32065,9.33941,1.45261,6.72888,-1.99169,29.0301,7,0,0,0
0,1405778428,348895,24.745,16.3533,-39.914,49.728,-8.67971,-0.743842,3.29762,9.31477,1.48774,5.91316,-0.976616,29.0699,7,0,0,0
0,1405778429,349904,24.905,16.2321,-40.2364,50.027,-8.67143,-0.784491,3.30782,9.31401,0.178347,6.86116,-1.39107,28.9987,8,0,0,0
0,1405778430,350909,24.9447,16.6158,-40.4585,50.3509,-8.71107,-0.738903,3.30902,9.34764,0.607582,7.78414,-0.876725,29.0822,8,0,0,0
0,1405778431,351912,24.8095,16.4889,-40.3519,50.1564,-8.69978,-0.76739,3.28126,9.32961,0.388047,5.85476,-2.56671,29.0684,8,0,0,0
0,1405778432,352919,24.8961,16.3768,-39.8932,49.7944,-8.69975,-0.764347,3.30471,9.33761,2.09728,6.17234,-1.16001,29.0474,7,0,0,0
0,1405778433,353922,24.8672,16.4744,-40.1543,50.0215,-8.70471,-0.743659,3.29691,9.33781,1.33376,5.78481,-1.19487,29.0903,7,0,0,0
0,1405778434,354929,24.9034,16.2235,-40.2812,50.0595,-8.67156,-0.757394,3.30389,9.31049,2.52856,5.8462,-1.49449,29.065,8,0,0,0
0,1405778435,355938,25.0991,16.4198,-40.3379,50.2664,-8.71756,-0.751015,3.30992,9.35497,0.904446,6.04744,-1.91724,29.0726,6,0,0,0
0,1405778436,356943,24.8154,16.6533,-39.8489,49.8104,-8.72228,-0.741231,3.29376,9.35288,1.61726,6.97141,-1.76638,29.1508,7,0,0,0
0,1405778437,357949,25.0537,15.9827,-40.4898,50.225,-8.69124,-0.739506,3.30711,9.32853,1.71191,6.41276,-1.65471,29.3304,7,0,0,0
0,1405778438,358958,25.0319,16.2578,-40.6446,50.4271,-8.6913,-0.756526,3.27117,9.31727,2.36387,6.37487,-1.10286,29.1857,8,0,0,0
0,1405778439,359966,24.9727,16.1425,-40.309,50.0903,-8.68654,-0.762945,3.29054,9.32018,-0.478792,6.61318,-0.752395,29.2337,8,0,0,0
0,1405778440,360967,24.7305,16.1134,-40.0138,49.7227,-8.69197,-0.775426,3.29675,9.32847,1.59789,7.26887,-0.60519,29.3121,7,0,0,0
0,1405778441,361973,24.6459,16.2717,-40.3667,50.0166,-8.69683,-0.751211,3.31255,9.3366,1.84188,7.23797,-1.81759,29.2837,7,0,0,0
0,1405778442,362978,24.9782,16.4603,-40.269,50.1642,-8.69358,-0.749869,3.29105,9.32586,0.94199,7.48779,-2.17762,29.2698,7,0,0,0
0,1405778443,363981,25.0175,16.6423,-40.2939,50.2637,-8.67467,-0.77821,3.27078,9.30341,1.04465,6.22903,-1.24,29.2789,7,0,0,0
0,1405778444,364984,24.5967,16.2283,-39.851,49.5627,-8.70505,-0.739871,3.30902,9.3421,1.24327,6.46189,-1.86957,29.2473,7,0,0,0
0,1405778445,365996,24.7588,15.9259,-40.4714,50.0456,-8.70141,-0.763919,3.34038,9.35181,1.46,6.99196,-2.68159,29.2686,8,0,0,0
0,1405778447,367002,24.5435,16.3706,-40.4412,50.0587,-8.69032,-0.753599,3.29996,9.32627,1.99769,6.65906,-2.35137,29.3431,8,0,0,0
0,1405778448,368005,24.7568,16.3538,-40.0967,49.8808,-8.71715,-0.768207,3.26593,9.34051,2.07005,7.62427,-1.51619,29.3977,7,0,0,0
0,1405778449,369006,24.985,16.4991,-40.3296,50.229,-8.69109,-0.762454,3.30446,9.3293,1.22466,7.16161,-1.69827,29.3516,8,0,0,0
0,1405778450,370014,24.9869,16.1825,-39.926,49.8026,-8.69615,-0.756662,3.31711,9.33803,2.66307,6.70755,-2.15969,29.3564,7,0,0,0
0,1405778451,371023,24.6472,16.6072,-40.1255,49.9334,-8.70394,-0.766817,3.2696,9.32935,0.21287,6.29501,-2.64341,29.36,8,0,0,0
0,1405778452,372025,24.9457,16.1407,-40.2303,50.0128,-8.68743,-0.761041,3.29201,9.32137,2.48528,5.88049,-1.75188,29.4108,8,0,0,0
0,1405778453,373031,25.1485,16.5693,-40.2138,50.2408,-8.69323,-0.748216,3.29283,9.32603,0.508499,6.64241,-2.53404,29.4173,8,0,0,0
0,1405778454,374037,24.757,16.4354,-40.3569,50.117,-8.68493,-0.740377,3.2908,9.31695,2.22221,6.20239,-1.61498,29.5232,8,0,0,0
0,1405778455,375045,24.6895,16.3289,-40.3798,50.0673,-8.70285,-0.743298,3.28051,9.33026,0.530244,6.8705,-0.400063,29.4458,7,0,0,0
0,1405778456,376049,24.8548,16.287,-40.4029,50.154,-8.6721,-0.745113,3.28091,9.30187,1.8595,6.48948,-2.04147,29.4396,8,0,0,0
0,1405778457,377057,24.8149,16.2841,-40.5502,50.252,-8.6638,-0.759145,3.27675,9.29381,1.43919,6.95807,-1.50267,29.4988,6,0,0,0
0,1405778458,378063,24.8252,16.0368,-40.325,49.9958,-8.67799,-0.765706,3.28986,9.31219,0.880257,5.87564,-1.36465,29.6174,8,0,0,0
0,1405778459,379070,24.4338,16.3781,-40.0987,49.7309,-8.68269,-0.782344,3.28508,9.31627,0.393818,5.99747,-1.03927,29.6408,6,0,0,0
0,1405778460,380076,24.8854,16.3921,-40.1632,50.0106,-8.69628,-0.771495,3.26626,9.32142,1.93528,5.09972,-3.72248,29.5924,7,0,0,0
0,1405778461,381077,24.7052,16.0197,-40.1125,49.7593,-8.68719,-0.784318,3.32562,9.335,0.426203,6.35885,-2.75753,29.5156,6,0,0,0
0,1405778462,382084,24.6258,16.5828,-40.5408,50.2492,-8.70892,-0.764878,3.28644,9.33976,2.68557,5.12263,-0.94636,29.6117,7,0,0,0
0,1405778463,383090,24.7039,16.0572,-40.4277,50.0252,-8.67641,-0.769248,3.28976,9.31098,2.96446,6.59255,-2.29943,29.6137,7,0,0,0
0,1405778464,384098,24.4273,16.2701,-40.2145,49.7857,-8.67378,-0.766699,3.30656,9.31427,2.76997,6.04993,-2.18895,29.6341,8,0,0,0
0,1405778465,385105,24.5012,16.2354,-40.1295,49.7421,-8.68786,-0.754796,3.29138,9.32105,2.0155,6.68255,-2.50051,29.5797,7,0,0,0
0,1405778466,386111,24.5984,16.1815,-40.5316,50.0972,-8.68582,-0.761122,3.2923,9.31998,0.872502,6.88742,-2.05186,29.7197,8,0,0,0
0,1405778467,387114,24.2817,16.2983,-40.6356,50.0648,-8.70899,-0.750398,3.26182,9.33001,0.734152,6.04041,-1.97036,29.6708,7,0,0,0
0,1405778468,388116,24.2938,16.4456,-40.6955,50.1675,-8.67426,-0.754377,3.28783,9.30707,2.33849,6.11168,-1.36012,29.6126,7,0,0,0
0,1405778469,389118,24.3941,16.4389,-40.6669,50.1907,-8.70448,-0.75347,3.30094,9.33981,2.20044,6.47602,-1.96266,29.623,8,0,0,0
0,1405778470,390127,24.3787,16.4417,-40.6856,50.1993,-8.67289,-0.75616,3.28561,9.30516,1.71301,7.21371,-2.55806,29.6799,7,0,0,0
0,1405778471,391134,24.2073,16.2893,-40.6291,50.0206,-8.67061,-0.751514,3.30692,9.31021,1.41508,5.60201,-2.8408,29.754,8,0,0,0
0,1405778472,392144,24.4433,16.0191,-40.329,49.8048,-8.70012,-0.759178,3.29406,9.33377,1.67402,6.46552,-1.72495,29.6558,8,0,0,0
0,1405778473,393149,24.3692,16.4903,-40.6571,50.1875,-8.68664,-0.761808,3.30634,9.32577,0.933384,6.92615,-2.04132,29.7857,8,0,0,0
0,1405778474,394154,24.462,16.4841,-40.5309,50.1286,-8.69367,-0.742398,3.30311,9.32961,1.8787,6.28018,-1.01782,29.7468,9,0,0,0
0,1405778475,395156,24.039,16.3984,-40.7625,50.0835,-8.65555,-0.76694,3.29376,9.29277,1.78806,5.35184,-1.9302,29.7206,7,0,0,0
0,1405778476,396158,24.4626,16.5141,-40.6818,50.2608,-8.68056,-0.781538,3.30531,9.32138,0.692745,7.41566,-1.71964,29.7522,8,0,0,0
0,1405778477,397162,24.3883,16.5325,-40.6173,50.1785,-8.70302,-0.78125,3.29161,9.33743,0.130555,6.19398,-1.74143,29.7563,7,0,0,0
0,1405778478,398168,23.9934,16.4215,-40.4788,49.8386,-8.67717,-0.747494,3.30637,9.3158,2.86127,5.89729,-2.34097,29.8878,8,0,0,0
0,1405778479,399175,24.2325,16.4628,-40.1451,49.6978,-8.69183,-0.769544,3.27697,9.32087,0.81238,6.62016,-1.24805,29.8388,7,0,0,0
0,1405778480,400180,24.0593,16.0681,-40.663,49.9051,-8.69329,-0.744205,3.32404,9.33683,1.03524,6.34058,-1.81783,29.8043,7,0,0,0
0,1405778481,401188,24.3243,15.8634,-40.3031,49.6756,-8.67314,-0.761418,3.28642,9.30611,1.09575,6.16874,-3.0384,29.867,7,0,0,0
0,1405778482,402196,24.1703,16.1888,-40.5162,49.8783,-8.6944,-0.75245,3.2896,9.32632,2.21394,5.80721,-3.07912,29.8416,8,0,0,0
0,1405778483,403202,24.0388,16.3879,-40.5496,49.9069,-8.69779,-0.760402,3.29421,9.33175,1.45684,6.24026,-2.04358,29.8683,7,0,0,0
0,1405778484,404209,24.1392,16.0631,-40.7019,49.9737,-8.69811,-0.761249,3.31334,9.33889,1.1226,6.53706,-2.71503,29.9652,8,0,0,0
0,1405778485,405216,24.1428,16.2584,-40.4052,49.7975,-8.70303,-0.757907,3.2944,9.3365,2.16921,6.60428,-1.85191,29.8361,7,0,0,0
0,1405778486,406223,24.2016,16.3216,-40.6368,50.0346,-8.69195,-0.736412,3.29388,9.32427,3.51682,6.31198,-2.66769,29.8868,8,0,0,0
0,1405778487,407224,24.2818,16.3052,-40.4494,49.9161,-8.70198,-0.74925,3.28201,9.33046,0.311356,6.08426,-1.38344,29.9278,7,0,0,0
0,1405778488,408225,24.376,16.1574,-40.474,49.9339,-8.67059,-0.771182,3.30376,9.31067,1.53447,6.39502,-2.24059,29.8886,8,0,0,0
0,1405778489,409227,24.109,15.7664,-40.3408,49.5702,-8.7072,-0.758224,3.28094,9.33568,1.89076,6.4507,-1.05457,29.8951,8,0,0,0
0,1405778490,410231,24.2532,16.3063,-40.5225,49.9619,-8.69259,-0.75384,3.28587,9.32343,1.16566,7.05604,-2.11765,30.0463,8,0,0,0
0,1405778491,411233,24.3295,16.1047,-41.1761,50.4654,-8.69645,-0.765664,3.28802,9.32875,1.9102,6.70651,-1.85589,29.8488,8,0,0,0
0,1405778492,412237,24.2471,16.4105,-40.47,49.9505,-8.67481,-0.75491,3.29603,9.31053,0.794792,7.17547,-1.74595,29.9607,7,0,0,0
0,1405778493,413245,24.2175,16.2815,-40.0992,49.5936,-8.69303,-0.758936,3.2973,9.32829,2.26942,6.57284,-1.65041,29.9766,7,0,0,0
0,1405778494,414248,24.4761,16.6111,-40.366,50.0442,-8.6994,-0.763576,3.28629,9.33072,1.74044,6.87325,-1.68845,29.8868,6,0,0,0
0,1405778495,415250,24.3216,16.1042,-40.1002,49.5874,-8.69238,-0.777292,3.29585,9.32868,1.35189,6.99528,-2.40378,30.0374,8,0,0,0
0,1405778496,416258,24.29,15.9202,-40.3112,49.6835,-8.70884,-0.751086,3.30068,9.34358,1.68502,6.54574,-1.80683,30.0053,7,0,0,0
0,1405778497,417262,24.2631,16.3877,-40.8146,50.2303,-8.69014,-0.777691,3.30956,9.33149,1.13942,5.59114,-1.81744,30.0135,8,0,0,0
0,1405778498,418267,24.2662,16.2384,-40.3586,49.8131,-8.70872,-0.767989,3.31563,9.35013,2.10441,6.12444,-1.68647,30.0139,8,0,0,0
0,1405778499,419276,24.2313,16.0982,-40.5355,49.8942,-8.70552,-0.745274,3.3111,9.34371,1.2134,7.05458,-2.20716,30.0299,7,0,0,0
0,1405778500,420277,24.4742,16.2613,-39.8686,49.5269,-8.68984,-0.65839,3.30287,9.31964,2.30926,7.28232,-2.88516,30.2155,7,0,0,0
0,1405778501,421281,24.4484,16.1916,-40.478,49.9836,-8.68886,-0.896469,3.28898,9.33366,1.42333,6.1685,-1.88541,30.1279,7,0,0,0
0,1405778502,422288,24.5675,16.232,-40.4248,50.012,-8.68818,-0.705053,3.3169,9.32649,1.78924,6.02407,-2.37099,30.1199,8,0,0,0
0,1405778503,423293,24.2498,16.0055,-40.5698,49.9013,-8.69468,-0.774244,3.29023,9.32859,2.80541,7.02405,-2.00155,30.2637,7,0,0,0
0,1405778504,424298,24.7728,16.3118,-40.5013,50.2008,-8.69881,-0.753169,3.27496,9.32534,0.471034,7.62249,-1.04444,30.0514,7,0,0,0
0,1405778505,425302,24.5974,15.8185,-40.2691,49.768,-8.68103,-0.770484,3.31362,9.32384,-0.00897357,6.49831,-0.501312,30.2001,7,0,0,0
0,1405778506,426303,24.2996,16.1467,-40.2609,49.7205,-8.69824,-0.767952,3.30666,9.33719,1.07884,5.97795,-0.895995,30.0537,7,0,0,0
0,1405778507,427311,24.5811,16.2574,-40.3021,49.9279,-8.68989,-0.729038,3.35013,9.34179,0.244806,5.77422,-2.23896,30.045,8,0,0,0
0,1405778508,428315,24.4872,16.0846,-40.3679,49.8789,-8.67893,-0.764687,3.29393,9.31442,2.37771,6.37854,-2.71581,30.1891,7,0,0,0
0,1405778509,429320,24.7488,16.232,-40.5457,50.1989,-8.68322,-0.752906,3.30522,9.32146,1.98789,5.79501,-1.51938,30.2167,9,0,0,0
0,1405778510,430323,24.5694,16.1952,-40.4694,50.0371,-8.6895,-0.763726,3.25283,9.30976,1.04286,5.80665,-1.73692,30.3405,8,0,0,0
0,1405778511,431324,24.4189,16.1896,-40.0523,49.6243,-8.71194,-0.759505,3.26981,9.3363,1.84218,6.60463,-3.73728,30.3014,8,0,0,0
0,1405778512,432327,24.6718,16.0356,-40.3715,49.957,-8.67735,-0.773067,3.28804,9.31157,0.539197,6.51235,-2.56889,30.2545,8,0,0,0
0,1405778513,433329,24.6786,16.1248,-40.545,50.1292,-8.69014,-0.766157,3.28607,9.32222,0.174346,6.53229,-2.27126,30.2121,8,0,0,0
0,1405778514,434337,24.5724,16.298,-40.1853,49.8427,-8.69103,-0.778367,3.27746,9.32103,1.49195,6.73452,-2.69583,30.3616,8,0,0,0
0,1405778515,435342,24.5904,16.12,-40.5455,50.0847,-8.68661,-0.764591,3.30398,9.32513,1.88935,6.63187,-1.42504,30.322,8,0,0,0
0,1405778516,436347,24.711,16.3074,-40.4825,50.1537,-8.68621,-0.761665,3.30027,9.3232,1.94608,5.96208,-1.94649,30.331,8,0,0,0
0,1405778517,437348,24.5582,16.0967,-40.0898,49.6931,-8.688,-0.79387,3.2925,9.32481,1.11848,5.53896,-1.46788,30.3689,7,0,0,0
0,1405778518,438352,24.5066,16.2238,-40.1863,49.7868,-8.68683,-0.737462,3.33583,9.33448,0.438772,7.11088,-1.7324,30.425,7,0,0,0
0,1405778519,439360,24.5738,16.4522,-40.0736,49.804,-8.69321,-0.743673,3.27559,9.31957,1.88865,7.55824,-2.71876,30.3783,8,0,0,0
0,1405778520,440369,24.221,16.0317,-40.6422,49.9546,-8.67858,-0.755205,3.28816,9.31129,2.74226,5.91446,-1.51044,30.356,8,0,0,0
0,1405778521,441370,24.5533,16.3916,-40.2157,49.8884,-8.69647,-0.747858,3.28553,9.32644,0.68865,5.53607,-1.42339,30.3812,7,0,0,0
0,1405778522,442371,24.7543,16.2152,-40.1847,49.9051,-8.69988,-0.749714,3.2985,9.33435,0.814829,5.54265,-2.18484,30.3776,7,0,0,0
0,1405778523,443375,24.787,16.0054,-39.9891,49.696,-8.71092,-0.789443,3.27955,9.34124,1.43839,6.28273,-2.28468,30.3232,7,0,0,0
0,1405778524,444379,24.5548,16.5495,-39.7999,49.607,-8.68501,-0.758814,3.2679,9.31044,2.53193,6.6183,-1.60711,30.3934,8,0,0,0
0,1405778525,445387,24.6905,16.3139,-40.2913,49.9915,-8.69434,-0.748398,3.3065,9.33192,1.03482,6.72062,-2.09428,30.5653,7,0,0,0
0,1405778526,446389,24.6244,16.2545,-39.744,49.499,-8.68437,-0.752576,3.30136,9.32114,0.705242,7.09065,-2.20475,30.4287,7,0,0,0
0,1405778527,447396,24.7752,16.0462,-40.3802,50.0185,-8.70072,-0.756359,3.30081,9.33649,0.270013,5.87845,-1.21752,30.4546,7,0,0,0
0,1405778528,448397,24.8226,16.0298,-40.0501,49.7708,-8.70576,-0.74889,3.28992,9.33674,1.4923,6.42491,-1.90031,30.6285,8,0,0,0
0,1405778529,449400,24.7385,15.7893,-40.206,49.7777,-8.68164,-0.771373,3.28697,9.31504,2.1233,6.00879,-2.73271,30.5645,8,0,0,0
0,1405778530,450411,24.7745,16.2533,-39.7719,49.5959,-8.68428,-0.775379,3.26903,9.31153,1.5933,6.65326,-2.90054,30.5511,8,0,0,0
0,1405778531,451414,24.9071,16.3226,-40.2307,50.053,-8.70781,-0.747461,3.28663,9.33737,1.00911,6.38279,-0.826856,30.5957,8,0,0,0
0,1405778532,452417,24.4752,16.2842,-40.3359,49.9119,-8.69294,-0.764093,3.3141,9.33457,0.674564,7.36762,-1.80308,30.6819,7,0,0,0
0,1405778533,453418,24.7589,16.189,-39.8176,49.6037,-8.68937,-0.765795,3.29378,9.32419,2.28226,5.45292,-1.55687,30.7095,7,0,0,0
0,1405778534,454426,24.6733,15.8311,-40.0766,49.6541,-8.68224,-0.734255,3.30667,9.31957,0.836506,6.59433,-1.29448,30.7203,7,0,0,0
0,1405778535,455438,24.5332,16.1527,-40.1251,49.7274,-8.70187,-0.753054,3.28757,9.33262,1.80798,7.86181,-1.6357,30.7092,8,0,0,0
0,1405778536,456444,24.5899,16.1225,-39.8947,49.5599,-8.67275,-0.770825,3.28272,9.30521,1.71379,5.42863,-1.07068,30.7583,7,0,0,0
0,1405778537,457452,24.6976,16.2066,-40.1993,49.886,-8.68216,-0.758382,3.28154,9.31255,1.58271,6.45481,-1.93207,30.7908,8,0,0,0
0,1405778538,458457,24.6013,16.3065,-39.7549,49.5134,-8.69285,-0.754092,3.29492,9.32689,1.99209,6.29927,-3.2038,30.7228,8,0,0,0
0,1405778539,459463,24.6118,16.1884,-40.3295,49.9427,-8.69509,-0.788349,3.29097,9.33041,1.80504,6.2499,-1.46259,30.7649,8,0,0,0
0,1405778540,460465,24.8425,16.0641,-40.3099,50.0009,-8.69046,-0.748566,3.2741,9.31688,1.8672,7.08894,-2.10851,30.7925,8,0,0,0
0,1405778541,461469,24.6759,16.3956,-40.1225,49.8751,-8.70155,-0.758093,3.29184,9.33423,1.46131,5.36201,-2.12886,30.7994,8,0,0,0
0,1405778542,462471,24.7876,16.199,-40.1381,49.8789,-8.70483,-0.73933,3.26804,9.32742,1.61331,7.03663,-2.19692,30.861,8,0,0,0
0,1405778543,463476,24.5783,16.2036,-39.9089,49.592,-8.68598,-0.754885,3.28143,9.31579,1.00198,6.40596,-2.20046,30.7693,8,0,0,0
0,1405778544,464483,24.8593,16.2326,-40.1157,49.9074,-8.7053,-0.751907,3.28666,9.3354,2.44794,6.52493,-1.8343,30.9056,7,0,0,0
0,1405778545,465486,24.484,16.3135,-40.1244,49.7551,-8.68414,-0.751752,3.31825,9.32686,1.70748,7.48046,-2.51384,30.7868,8,0,0,0
0,1405778546,466488,24.8817,16.2316,-39.7183,49.5995,-8.69349,-0.754546,3.27668,9.3211,0.307819,6.66257,-2.0048,30.8877,7,0,0,0
0,1405778547,467489,24.8079,15.8833,-39.8173,49.529,-8.66946,-0.778413,3.28476,9.3035,2.17339,6.78353,-1.71614,30.8109,7,0,0,0
0,1405778548,468496,24.5411,16.3867,-39.9673,49.6807,-8.69228,-0.759506,3.29424,9.32655,2.2476,5.81087,-1.29256,30.9543,8,0,0,0
0,1405778549,469498,24.2855,16.5176,-40.3595,49.9149,-8.69712,-0.742751,3.2889,9.32784,2.73226,6.16285,-0.628059,30.878,7,0,0,0
0,1405778550,470506,24.3586,16.1515,-40.2899,49.7743,-8.67823,-0.73823,3.29396,9.31165,1.99376,6.51995,-1.95288,30.9324,7,0,0,0
0,1405778551,471512,24.8162,16.4965,-39.8349,49.7473,-8.70452,-0.758196,3.28349,9.33406,1.04531,5.95359,-0.0985006,30.9225,7,0,0,0
0,1405778552,472514,24.7292,16.1391,-40.0564,49.7647,-8.68895,-0.733741,3.27634,9.31507,2.13883,7.12309,-1.73988,30.9016,7,0,0,0
0,1405778553,473516,24.4467,16.3573,-40.0281,49.6734,-8.69562,-0.761747,3.30955,9.33526,2.06485,7.6601,-2.48629,30.9691,7,0,0,0
0,1405778554,474527,24.3179,16.3669,-39.9603,49.5586,-8.69172,-0.761125,3.28297,9.32219,-0.00108888,5.50438,-3.58114,31.1469,8,0,0,0
0,1405778555,475535,24.4395,16.2189,-40.0539,49.6453,-8.68726,-0.746858,3.28294,9.31686,1.842,6.56945,-2.12335,31.0183,8,0,0,0
0,1405778556,476538,24.6499,16.0095,-40.0825,49.7044,-8.70702,-0.758957,3.31306,9.34691,1.94619,6.66683,-2.48506,31.0042,8,0,0,0
0,1405778557,477542,24.9343,16.1488,-39.8925,49.7385,-8.68343,-0.762467,3.28611,9.31567,1.17077,6.63683,-1.89016,31.0241,8,0,0,0
0,1405778558,478545,24.3441,16.2769,-39.9414,49.5267,-8.69775,-0.759365,3.29478,9.33183,0.947446,5.85559,-1.74491,31.0204,7,0,0,0
0,1405778559,479546,24.6995,16.2501,-40.1773,49.8833,-8.68751,-0.763054,3.29358,9.32217,0.898021,7.28498,-1.64159,31.0715,9,0,0,0
0,1405778560,480548,24.342,16.5621,-40.1695,49.8039,-8.6877,-0.772586,3.25818,9.31068,2.22078,6.73077,-1.68522,31.089,7,0,0,0
0,1405778561,481550,24.6169,16.1015,-40.5329,50.0816,-8.67001,-0.76275,3.28633,9.30327,0.983429,5.99901,-1.76023,31.1499,8,0,0,0
0,1405778562,482558,25.0512,15.9665,-40.2628,50.0358,-8.67672,-0.748275,3.33382,9.32522,1.64524,6.73245,-1.84831,31.0849,6,0,0,0
0,1405778563,483562,24.46,16.3255,-40.1384,49.7584,-8.68457,-0.772495,3.27752,9.31454,1.3824,6.63093,-1.81764,31.1748,8,0,0,0
0,1405778564,484563,24.3457,16.2433,-40.1073,49.6504,-8.70254,-0.7576,3.32139,9.34558,1.3146,6.39435,-2.35398,31.2228,8,0,0,0
0,1405778565,485570,24.899,16.3607,-39.591,49.5487,-8.70318,-0.779486,3.29199,9.33757,1.99755,5.26042,-2.20777,31.133,7,0,0,0
0,1405778566,486573,24.3292,16.0367,-40.3303,49.7556,-8.69297,-0.751038,3.26041,9.31462,1.62028,7.69112,-1.56721,31.2615,8,0,0,0
0,1405778567,487576,24.8081,16.2504,-39.8734,49.6931,-8.68272,-0.75903,3.28085,9.31288,1.61261,6.87879,-1.48778,31.2189,7,0,0,0
0,1405778568,488582,24.8473,16.0985,-39.4928,49.3582,-8.69142,-0.738164,3.31839,9.3326,1.72543,6.77737,-2.99042,31.1633,8,0,0,0
0,1405778569,489590,24.3026,16.0696,-40.4242,49.8294,-8.70093,-0.768766,3.2764,9.3291,2.3983,7.35775,-2.46798,31.2028,8,0,0,0
0,1405778570,490591,24.2667,16.1006,-40.2757,49.7014,-8.70801,-0.760322,3.30764,9.34601,1.01668,7.30909,-1.55748,31.1793,7,0,0,0
0,1405778571,491595,25.0095,15.8735,-40.4377,50.1264,-8.70089,-0.754914,3.29283,9.33371,1.17231,7.23874,-3.24006,31.2493,8,0,0,0
0,1405778572,492599,25.0533,16.5816,-39.4824,49.6133,-8.70358,-0.745302,3.28424,9.33242,1.01026,5.84227,-1.74394,31.2785,8,0,0,0
0,1405778573,493606,24.9969,16.3949,-40.1069,50.0221,-8.70699,-0.774904,3.27838,9.33595,2.4467,6.36727,-2.74553,31.2625,8,0,0,0
0,1405778574,494611,23.9944,15.9935,-40.3191,49.5697,-8.69543,-0.762105,3.26886,9.32077,1.6355,5.86427,-1.20836,31.3206,7,0,0,0
0,1405778575,495612,24.365,15.9196,-39.8677,49.3611,-8.68582,-0.768792,3.2886,9.3193,0.120524,7.57405,-1.26219,31.3093,7,0,0,0
0,1405778576,496619,24.8209,16.327,-39.7306,49.6102,-8.69041,-0.758217,3.27345,9.31738,1.51294,7.37405,-1.92252,31.3462,7,0,0,0
0,1405778577,497620,24.7671,15.4929,-39.5157,49.1419,-8.71703,-0.768882,3.2859,9.34745,1.68703,5.87378,-2.63802,31.2578,8,0,0,0
0,1405778578,498625,24.5768,15.7701,-39.4985,49.1207,-8.69968,-0.751723,3.29979,9.33478,1.00298,7.29289,-3.24092,31.2258,8,0,0,0
0,1405778579,499629,25.0048,15.7214,-39.4301,49.2659,-8.68759,-0.751219,3.31862,9.33016,0.513187,6.73312,-2.03236,31.3241,8,0,0,0
0,1405778580,500633,24.8005,15.7301,-39.4944,49.217,-8.68777,-0.77105,3.29205,9.32252,0.28643,6.62963,-1.37068,31.253,8,0,0,0
0,1405778581,501639,24.5405,15.7662,-39.7122,49.2734,-8.704,-0.771168,3.29293,9.33797,-0.258386,6.90041,-1.14102,31.2839,8,0,0,0
0,1405778582,502643,24.4827,15.8609,-40.3868,49.8203,-8.71532,-0.762516,3.29322,9.34792,0.694964,7.65902,-1.96453,31.2774,7,0,0,0
0,1405778583,503650,24.377,16.0586,-39.6444,49.232,-8.68855,-0.749399,3.27199,9.31441,1.41638,5.91188,-1.8654,31.3614,7,0,0,0
0,1405778584,504656,24.6135,15.4824,-39.7371,49.2399,-8.70124,-0.771955,3.25421,9.32187,1.50846,7.1836,-2.40445,31.3363,6,0,0,0
0,1405778585,505662,24.9272,15.7272,-39.6118,49.3741,-8.6926,-0.764719,3.28933,9.32554,1.49733,5.80614,-1.8133,31.3568,8,0,0,0
0,1405778586,506666,24.6514,15.6664,-39.4114,49.0549,-8.68289,-0.763975,3.30621,9.32241,2.33141,6.77219,-1.40297,31.4192,8,0,0,0
0,1405778587,507676,24.8769,15.733,-39.7022,49.4232,-8.66723,-0.767918,3.26835,9.29476,1.17457,7.59883,-2.48739,31.2712,8,0,0,0
0,1405778588,508680,24.576,15.7401,-39.6895,49.2644,-8.6913,-0.752424,3.30439,9.32865,2.01116,6.74472,-1.56561,31.3571,7,0,0,0
0,1405778589,509690,24.8002,15.8337,-39.7017,49.4164,-8.68869,-0.755583,3.28856,9.32088,1.80645,6.43627,-1.73586,31.4053,7,0,0,0
0,1405778590,510696,25.1248,15.6181,-39.8473,49.6285,-8.67163,-0.749877,3.2861,9.30365,-0.800828,5.86987,-0.897649,31.4243,7,0,0,0
0,1405778591,511697,24.8138,15.826,-39.7876,49.4898,-8.69087,-0.760865,3.28619,9.32251,2.08609,6.93644,-2.47278,31.3681,7,0,0,0
0,1405778592,512702,24.9736,15.7309,-40.0947,49.7868,-8.68986,-0.769224,3.30122,9.32756,1.23616,6.81463,-2.74851,31.3698,7,0,0,0
0,1405778593,513711,24.7257,15.8915,-40.0206,49.6542,-8.7017,-0.766316,3.27569,9.32936,-0.704139,7.24816,-2.49198,31.3604,7,0,0,0
0,1405778594,514715,24.6059,15.8941,-39.5679,49.231,-8.69623,-0.774923,3.31967,9.34051,1.65898,6.4843,-1.21627,31.4564,7,0,0,0
0,1405778595,515722,24.5817,15.8848,-39.876,49.464,-8.69699,-0.762971,3.29534,9.33162,1.29592,6.0046,-1.80133,31.5318,8,0,0,0
0,1405778596,516726,25.1177,16.1254,-39.7666,49.7224,-8.68644,-0.749043,3.28135,9.31572,1.39515,6.38584,-1.93643,31.5542,7,0,0,0
0,1405778597,517734,24.8369,15.9988,-39.5683,49.381,-8.69524,-0.764256,3.29444,9.32977,3.79911,5.84134,-1.64972,31.4954,8,0,0,0
0,1405778598,518742,24.865,15.7801,-39.3903,49.1821,-8.69113,-0.752949,3.27935,9.3197,-0.0062645,7.4524,-1.70226,31.4458,7,0,0,0
0,1405778599,519751,24.8918,15.6695,-39.7925,49.4831,-8.67287,-0.764921,3.26391,9.29822,0.805222,6.33718,-1.81443,31.4171,8,0,0,0
0,1405778600,520752,24.7988,15.9407,-39.6751,49.4287,-8.68753,-0.751834,3.31465,9.32874,2.17459,7.0394,-1.47634,31.5037,7,0,0,0
0,1405778601,521760,24.927,16.0029,-39.8837,49.6805,-8.70796,-0.752652,3.27204,9.33281,2.1675,6.58167,-1.30838,31.5966,8,0,0,0
0,1405778602,522765,24.6709,15.9202,-39.8289,49.4818,-8.69432,-0.756236,3.27427,9.32115,0.669187,6.10009,-2.31552,31.5917,8,0,0,0
0,1405778603,523772,24.8943,15.4154,-39.2628,48.9789,-8.69762,-0.726238,3.3185,9.33748,1.54085,6.59162,-3.06961,31.5184,8,0,0,0
0,1405778604,524778,24.997,15.6754,-39.672,49.4412,-8.69586,-0.768296,3.30637,9.3349,1.88862,5.17712,-2.19824,31.7098,7,0,0,0
0,1405778605,525779,24.6628,15.8777,-39.7278,49.3827,-8.69371,-0.758376,3.30332,9.331,3.36198,6.68577,-2.50004,31.6202,7,0,0,0
0,1405778606,526783,24.9369,15.8101,-39.9058,49.6415,-8.69591,-0.766091,3.28921,9.3287,2.80123,6.81863,-2.53533,31.6267,7,0,0,0
0,1405778607,527789,24.8838,15.7979,-39.9333,49.6331,-8.68069,-0.772506,3.28961,9.31519,0.874943,6.57921,-2.58286,31.74,7,0,0,0
0,1405778608,528797,25.1497,16.2236,-39.9257,49.8976,-8.6928,-0.76538,3.28776,9.32523,1.23985,7.06266,-3.28316,31.6626,8,0,0,0
0,1405778609,529801,25.1464,16.0217,-39.4707,49.4669,-8.69792,-0.762273,3.31351,9.33886,0.758654,6.51021,-1.25954,31.5986,7,0,0,0
0,1405778610,530807,24.9397,15.978,-39.7131,49.5421,-8.6886,-0.771523,3.28591,9.32117,0.538751,6.06025,-1.96284,31.5924,8,0,0,0
0,1405778611,531815,24.9983,15.6254,-39.6909,49.4412,-8.6895,-0.756347,3.29457,9.32382,1.60194,7.38139,-2.2152,31.6891,7,0,0,0
0,1405778612,532824,24.7094,16.0749,-39.5556,49.3316,-8.69499,-0.789241,3.3203,9.34078,-0.187318,6.48591,-2.37331,31.6864,8,0,0,0
0,1405778613,533831,24.3369,16.0245,-39.9302,49.4317,-8.6842,-0.762407,3.29518,9.31959,0.93391,6.69961,-1.56946,31.7662,8,0,0,0
0,1405778614,534837,24.505,16.1405,-39.7979,49.4458,-8.68677,-0.774145,3.31396,9.32961,1.58233,5.78905,-3.49679,31.699,7,0,0,0
0,1405778615,535845,25.0743,15.651,-39.717,49.5087,-8.68854,-0.74106,3.31652,9.32948,0.421142,7.21793,-3.14131,31.793,7,0,0,0
0,1405778616,536849,24.9743,16.0883,-39.6522,49.5464,-8.69994,-0.762502,3.25543,9.32031,0.581945,7.95152,-0.537411,31.7686,7,0,0,0
0,1405778617,537854,24.7465,15.6234,-39.7017,49.3224,-8.67994,-0.77497,3.29557,9.31679,1.57506,6.75813,-1.71028,31.7175,7,0,0,0
0,1405778618,538857,24.7678,15.8813,-39.7455,49.4506,-8.69896,-0.771296,3.30841,9.33876,1.2137,7.03257,-1.09996,31.8385,8,0,0,0
0,1405778619,539867,24.7234,15.6533,-39.5999,49.2385,-8.68985,-0.754668,3.30672,9.32832,1.8729,6.41355,-0.552781,31.8493,8,0,0,0
0,1405778620,540869,24.8524,16.144,-39.3977,49.2996,-8.70112,-0.772772,3.30427,9.33943,1.25907,6.23679,-1.29281,31.7614,7,0,0,0
0,1405778621,541873,25.0636,15.678,-39.7226,49.5164,-8.699,-0.778219,3.31618,9.34212,1.28272,6.59256,-2.49358,31.7996,8,0,0,0
0,1405778622,542877,25.0042,15.7878,-39.8138,49.5944,-8.69936,-0.754418,3.29293,9.33228,0.329277,7.38342,-1.84356,31.8986,7,0,0,0
0,1405778623,543889,24.9145,16.0197,-40.0691,49.8287,-8.69588,-0.752268,3.32786,9.34125,2.38917,7.32854,-2.32737,31.9602,8,0,0,0
0,1405778624,544891,24.8193,15.939,-39.6741,49.4377,-8.68611,-0.738296,3.3114,9.32518,1.99455,7.26048,-1.33908,31.8197,7,0,0,0
0,1405778625,545896,25.2558,15.9849,-39.3182,49.3892,-8.69528,-0.768076,3.28423,9.32652,2.31264,6.11114,-2.52236,31.9649,8,0,0,0
0,1405778626,546903,24.5519,15.8093,-39.8655,49.4165,-8.70622,-0.771052,3.29321,9.34013,1.86608,6.39387,-2.13661,31.9393,7,0,0,0
0,1405778627,547910,24.587,16.0978,-39.7113,49.4029,-8.69099,-0.754184,3.29428,9.32494,0.582976,7.56136,-1.8993,31.9695,7,0,0,0
0,1405778628,548916,24.8156,15.9617,-39.1079,48.99,-8.69224,-0.752044,3.26207,9.3146,1.06963,6.78362,-2.90553,31.8284,8,0,0,0
0,1405778629,549918,24.5588,15.9542,-39.8039,49.4168,-8.65744,-0.758532,3.29374,9.29384,1.36158,6.67508,-1.54475,32.0519,8,0,0,0
0,1405778630,550922,24.9528,15.8748,-39.4846,49.3324,-8.69374,-0.781675,3.28802,9.32755,1.02498,7.70597,-2.92826,31.985,8,0,0,0
0,1405778631,551927,25.3146,16.0624,-39.8064,49.8336,-8.69987,-0.74872,3.28734,9.33033,0.649146,5.92043,-3.4673,32.0613,7,0,0,0
0,1405778632,552935,24.9942,15.9979,-39.7775,49.6276,-8.70557,-0.770386,3.27478,9.33299,2.04173,6.88855,-1.36893,32.0199,7,0,0,0
0,1405778633,553937,25.0959,15.9115,-39.8254,49.6894,-8.70541,-0.750555,3.28334,9.33423,0.803866,7.00739,-2.14112,31.9656,8,0,0,0
0,1405778634,554944,24.8023,16.1504,-39.9904,49.7516,-8.69493,-0.770724,3.3134,9.33673,1.39129,7.20252,-3.60339,31.954,6,0,0,0
0,1405778635,555950,25.0845,16.3263,-39.8889,49.8689,-8.68034,-0.766862,3.27499,9.30924,1.65627,6.07727,-2.52052,32.0293,8,0,0,0
0,1405778636,556951,24.6939,15.925,-39.9241,49.5714,-8.69442,-0.748267,3.30057,9.32987,0.11693,8.14536,-1.48922,32.1849,7,0,0,0
0,1405778637,557958,24.9223,16.3237,-39.9553,49.8399,-8.68231,-0.755878,3.27624,9.31062,1.70901,6.72213,-1.18737,32.0631,8,0,0,0
0,1405778638,558959,25.3099,16.3386,-39.5503,49.7168,-8.6985,-0.776313,3.27629,9.32741,0.999232,6.64139,-1.53104,31.9723,6,0,0,0
0,1405778639,559967,25.2033,16.6807,-39.9406,50.087,-8.69605,-0.757295,3.27543,9.32326,2.66617,7.13071,-1.19572,32.0361,8,0,0,0
0,1405778640,560970,24.8731,15.8353,-39.6608,49.4207,-8.69721,-0.770086,3.28089,9.32731,0.659794,7.32514,-1.57236,32.1781,8,0,0,0
0,1405778641,561974,24.7992,16.218,-39.5822,49.4447,-8.70372,-0.755208,3.30406,9.34034,0.206537,7.09017,-2.48882,32.1173,8,0,0,0
0,1405778642,562979,25.1732,16.4848,-40.2632,50.2649,-8.68916,-0.747926,3.30093,9.32508,0.670237,6.58676,-1.30378,32.0528,6,0,0,0
0,1405778643,563981,24.7087,16.3636,-40.0543,49.8261,-8.69794,-0.748432,3.3033,9.33413,0.494906,7.19104,-1.48442,32.1476,7,0,0,0
0,1405778644,564987,25.0649,16.3992,-39.8629,49.8622,-8.67847,-0.736007,3.26542,9.30164,0.662646,6.5797,-2.38958,32.1588,7,0,0,0
0,1405778645,565991,25.1055,16.1675,-39.8608,49.8052,-8.68637,-0.753783,3.26406,9.30996,0.536818,6.63098,-1.83368,32.1083,8,0,0,0
0,1405778646,566994,25.1487,16.2309,-39.6228,49.6575,-8.69785,-0.807038,3.29337,9.33543,0.494884,6.46242,-2.28913,32.1724,8,0,0,0
0,1405778647,567999,24.9326,16.6386,-40.019,50,-8.68708,-0.753983,3.28508,9.31803,1.41999,5.84846,-2.64163,32.1673,8,0,0,0
0,1405778649,569008,25.0282,16.0083,-39.7704,49.6423,-8.68203,-0.774975,3.29183,9.31743,1.52751,6.85258,-2.44427,32.1625,7,0,0,0
0,1405778650,570015,25.1499,16.2232,-39.9177,49.8912,-8.6962,-0.775303,3.27566,9.32496,1.87523,6.53956,-2.1593,32.1466,7,0,0,0
0,1405778651,571016,25.2434,16.1806,-39.679,49.7339,-8.70335,-0.751557,3.27362,9.32898,1.90714,6.57567,-1.66639,32.2292,8,0,0,0
0,1405778652,572018,24.7628,16.6186,-39.9391,49.8448,-8.69326,-0.754714,3.31055,9.33285,0.660945,7.09502,-1.06902,32.2503,8,0,0,0
0,1405778653,573019,24.7476,16.3618,-39.6828,49.5467,-8.68374,-0.721617,3.27321,9.30817,1.52585,6.38136,-1.60823,32.2765,8,0,0,0
0,1405778654,574021,24.7271,16.5269,-39.9737,49.8244,-8.64524,-0.782549,3.2355,9.26396,2.00056,6.48549,-1.8919,32.3271,8,0,0,0
0,1405778655,575025,24.6242,16.397,-39.7849,49.5788,-8.68752,-0.787573,3.27991,9.31939,1.93203,6.45608,-2.37181,32.3515,8,0,0,0
0,1405778656,576027,24.8784,16.2699,-39.5119,49.4452,-8.71311,-0.767645,3.289,9.34479,1.00927,6.52604,-1.66296,32.2486,9,0,0,0
0,1405778657,577033,24.7795,16.4678,-39.8788,49.7547,-8.68803,-0.766353,3.26974,9.31452,1.52139,7.70047,-0.882243,32.3506,7,0,0,0
0,1405778658,578037,25.0974,16.3154,-39.7395,49.7524,-8.71505,-0.760406,3.29717,9.34889,0.690118,7.09213,-0.455378,32.2886,8,0,0,0
0,1405778659,579044,24.8432,16.3165,-39.6348,49.5412,-8.68745,-0.749255,3.28561,9.31817,0.523729,7.03005,-2.54211,32.3526,7,0,0,0
0,1405778660,580050,24.7657,16.3349,-39.7059,49.5654,-8.69288,-0.764304,3.33131,9.34066,1.284,7.24318,-2.2316,32.2999,7,0,0,0
0,1405778661,581052,25.0321,16.3673,-39.7603,49.7531,-8.69325,-0.773444,3.28451,9.32518,0.922217,6.7735,-2.7234,32.3045,7,0,0,0
0,1405778662,582057,25.4765,16.6784,-39.8217,50.1297,-8.69808,-0.759971,3.28605,9.32911,1.45283,6.13407,-2.20935,32.3481,8,0,0,0
0,1405778663,583063,25.1216,16.5689,-40.2727,50.2743,-8.7204,-0.764089,3.28328,9.34929,2.30981,6.47947,-1.43738,32.4178,8,0,0,0
0,1405778664,584069,24.695,16.4244,-39.9111,49.7243,-8.68558,-0.751068,3.26774,9.31029,0.305952,7.22444,-3.33611,32.4566,7,0,0,0
0,1405778665,585074,24.4663,16.4896,-39.4426,49.2567,-8.70831,-0.750221,3.25655,9.32751,1.52343,6.557,-1.62312,32.317,7,0,0,0
0,1405778666,586078,24.8003,16.2274,-39.9998,49.7832,-8.70038,-0.7682,3.27578,9.32832,3.14371,7.0953,-1.01305,32.3483,8,0,0,0
0,1405778667,587080,24.9582,16.3208,-39.541,49.5255,-8.69456,-0.752003,3.25055,9.31273,2.60375,6.5007,-2.44196,32.4796,7,0,0,0
0,1405778668,588084,24.7845,16.1989,-39.7346,49.5531,-8.68244,-0.76608,3.27497,9.31113,0.614917,6.62799,-0.269442,32.5085,7,0,0,0
0,1405778669,589085,25.0448,16.1003,-40.1706,50.0014,-8.68321,-0.760611,3.27004,9.30966,0.76443,6.54945,-1.52691,32.4552,8,0,0,0
0,1405778670,590092,24.9186,16.0942,-40.0176,49.8133,-8.71283,-0.754019,3.27361,9.33801,1.81943,7.25332,-2.33935,32.4474,8,0,0,0
0,1405778671,591094,24.8906,16.2575,-40.0501,49.8784,-8.68412,-0.737764,3.30295,9.32029,1.50056,6.53848,-2.79964,32.4131,7,0,0,0
0,1405778672,592101,24.8504,16.4209,-39.6933,49.6261,-8.72461,-0.755038,3.28893,9.35446,2.02367,6.53072,-3.53513,32.5025,8,0,0,0
0,1405778673,593107,25.0805,16.3956,-39.3625,49.4697,-8.69512,-0.75663,3.28964,9.32735,2.34685,6.21966,-0.905761,32.4843,7,0,0,0
0,1405778674,594108,25.1311,16.1983,-39.8414,49.8126,-8.67572,-0.765367,3.29088,9.31041,1.6677,6.35744,-1.81398,32.5267,8,0,0,0
0,1405778675,595112,24.7887,16.4633,-39.6061,49.5395,-8.7111,-0.761476,3.27705,9.33821,1.42536,7.20948,-1.81102,32.5073,6,0,0,0
0,1405778676,596114,25.047,15.9981,-39.8867,49.7417,-8.68963,-0.754625,3.31133,9.32974,2.39851,6.43107,-1.40106,32.4899,8,0,0,0
0,1405778677,597121,24.8554,16.2463,-39.4598,49.3843,-8.70113,-0.768029,3.25344,9.32118,1.00914,7.96807,-1.82449,32.5639,7,0,0,0
0,1405778678,598132,25.1186,16.286,-40.0168,49.9752,-8.6753,-0.769658,3.27699,9.30547,2.85746,5.85759,-2.29456,32.572,7,0,0,0
0,1405778679,599138,24.8629,16.125,-40.0522,49.8233,-8.70189,-0.766492,3.28268,9.332,2.14267,7.70579,-2.43442,32.5939,7,0,0,0
0,1405778680,600144,25.0003,16.4001,-40.0699,49.9958,-8.71028,-0.755916,3.31288,9.34963,0.623568,7.05286,-1.69962,32.4689,8,0,0,0
0,1405778681,601155,25.22,16.6053,-39.8418,49.9915,-8.69373,-0.776868,3.28231,9.32513,1.45777,6.64517,-3.34038,32.6737,7,0,0,0
0,1405778682,602160,25.1126,16.1808,-39.6204,49.6209,-8.68296,-0.770209,3.29826,9.32017,0.604046,6.73716,-1.77766,32.6071,8,0,0,0
0,1405778683,603166,24.8239,16.0532,-39.5459,49.3742,-8.69946,-0.763886,3.2855,9.33052,0.790084,7.08439,-2.16086,32.4917,8,0,0,0
0,1405778684,604173,25.1578,16.101,-39.9315,49.8667,-8.68676,-0.76682,3.25308,9.30754,1.21448,5.80578,-2.28338,32.6825,7,0,0,0
0,1405778685,605182,24.8627,16.5616,-39.6853,49.6726,-8.67701,-0.777418,3.29006,9.31232,2.44585,6.31273,-1.48441,32.5341,6,0,0,0
0,1405778686,606188,25.1572,16.1475,-39.56,49.5845,-8.6849,-0.757688,3.2972,9.32057,0.348227,6.48732,-2.2978,32.5812,7,0,0,0
0,1405778687,607194,24.7838,16.1975,-39.6918,49.518,-8.69097,-0.772543,3.29887,9.32804,0.394045,7.60992,-1.65187,32.554,8,0,0,0
0,1405778688,608202,24.7299,16.1648,-39.7592,49.5345,-8.6794,-0.775651,3.27779,9.31008,-0.172533,6.75311,-2.09067,32.6588,6,0,0,0
0,1405778689,609206,24.8505,16.0858,-39.1365,49.071,-8.66906,-0.738116,3.2768,9.29703,1.68797,5.71524,-3.41705,32.6603,7,0,0,0
0,1405778690,610208,25.0563,16.0204,-39.6619,49.5736,-8.69802,-0.764955,3.27653,9.32611,1.14251,6.56372,-2.54427,32.7097,7,0,0,0
0,1405778691,611214,25.0994,16.1738,-39.8615,49.8048,-8.69788,-0.756384,3.27518,9.32481,0.891718,6.6369,-1.7495,32.6989,8,0,0,0
0,1405778692,612220,25.2136,15.8989,-39.5661,49.5376,-8.69009,-0.752334,3.30064,9.3262,0.890552,5.79521,-1.92939,32.7025,7,0,0,0
0,1405778693,613228,25.0821,16.3225,-39.4386,49.5069,-8.69825,-0.77584,3.29357,9.33322,0.58498,6.99607,-1.75279,32.7634,8,0,0,0
0,1405778694,614232,24.941,15.9477,-39.6471,49.4801,-8.66485,-0.756215,3.31329,9.30749,1.45923,7.05562,-3.55971,32.7526,7,0,0,0
0,1405778695,615240,24.8137,16.2778,-39.2277,49.1884,-8.69094,-0.778751,3.30849,9.33194,-0.20087,6.92155,-0.881801,32.7201,6,0,0,0
0,1405778696,616247,24.7551,16.1692,-39.8351,49.6094,-8.7086,-0.754626,3.28374,9.33767,1.2216,6.72055,-1.40316,32.6375,8,0,0,0
0,1405778697,617250,24.8362,16.1899,-39.6968,49.5459,-8.70614,-0.77236,3.31357,9.34737,1.21289,6.86049,-3.01381,32.7218,8,0,0,0
0,1405778698,618257,25.0321,16.3662,-39.624,49.6439,-8.69144,-0.762061,3.28376,9.32228,2.25653,7.89892,-1.77902,32.7121,7,0,0,0
0,1405778699,619262,25.0862,16.1684,-39.8944,49.8227,-8.68131,-0.761919,3.28255,9.3124,2.58956,6.67777,-1.56764,32.7409,7,0,0,0
0,1405778700,620268,25.1611,16.4405,-39.5616,49.6839,-8.68591,-0.763566,3.29252,9.32034,0.970078,6.59764,-3.22082,32.7888,8,0,0,0
0,1405778701,621276,24.8515,16.4292,-39.2614,49.2846,-8.69447,-0.755523,3.28048,9.32343,1.66215,7.43279,-1.84027,32.7343,8,0,0,0
0,1405778702,622280,24.8684,16.0536,-39.8887,49.6716,-8.67646,-0.750647,3.27376,9.30386,1.79578,6.94678,-3.24232,32.7546,7,0,0,0
0,1405778703,623288,24.7265,16.588,-39.5978,49.5434,-8.68422,-0.7729,3.31272,9.32669,2.13576,7.21495,-1.25431,32.6897,7,0,0,0
0,1405778704,624291,25.4423,16.4042,-39.7863,49.9936,-8.70851,-0.74441,3.30317,9.34362,1.26481,6.49279,-1.85558,32.7827,7,0,0,0
0,1405778705,625299,25.1448,16.4728,-39.5935,49.7118,-8.715,-0.759142,3.29039,9.34634,1.85286,6.36707,-2.58866,32.7544,8,0,0,0
0,1405778706,626303,24.4031,16.7317,-39.9307,49.6983,-8.7256,-0.778257,3.28503,9.35592,2.35681,6.48721,-1.31476,32.8483,7,0,0,0
0,1405778707,627311,24.6251,16.4903,-39.7797,49.6059,-8.69541,-0.766747,3.28189,9.32571,1.27302,7.21441,-1.43383,32.8303,7,0,0,0
0,1405778708,628313,24.8547,16.1175,-39.5314,49.399,-8.687,-0.765598,3.29956,9.32401,2.21365,6.80339,-1.17478,32.8291,8,0,0,0
0,1405778709,629320,24.7174,16.2863,-39.6176,49.4545,-8.6954,-0.777611,3.29653,9.33176,0.422054,7.84383,-1.77204,32.7853,6,0,0,0
0,1405778710,630322,25.0884,15.8506,-40.033,49.8328,-8.68518,-0.765634,3.30585,9.32455,1.65568,6.76607,-2.36716,32.8264,7,0,0,0
0,1405778711,631324,25.1224,16.167,-39.5278,49.5475,-8.6979,-0.77007,3.28813,9.33051,1.19547,7.38642,-2.96658,32.8849,7,0,0,0
0,1405778712,632326,25.1056,16.0597,-39.5555,49.5262,-8.67813,-0.768626,3.29429,9.31414,1.86643,5.89365,-2.06811,32.8785,8,0,0,0
0,1405778713,633328,24.6529,16.1883,-39.7656,49.5089,-8.70399,-0.677731,3.27699,9.32509,1.46624,6.31599,-3.13404,32.9368,8,0,0,0
0,1405778714,634331,25.0706,16.152,-39.7261,49.6748,-8.70284,-1.1573,3.26952,9.36848,0.704691,7.6026,-0.872213,32.8831,8,0,0,0
0,1405778715,635333,24.7893,16.4729,-39.5601,49.5062,-8.65323,-0.41028,3.28309,9.2642,1.11224,6.15521,-1.60676,32.9413,8,0,0,0
0,1405778716,636339,24.6578,16.2997,-39.5943,49.4105,-8.72517,-0.975479,3.2794,9.37201,2.95448,6.90006,-1.62677,32.8233,8,0,0,0
0,1405778717,637342,24.483,16.526,-39.8119,49.5733,-8.70997,-0.685602,3.3315,9.35054,1.46997,7.90165,-2.57451,33.0378,8,0,0,0
0,1405778718,638347,24.8058,16.1715,-39.7371,49.5568,-8.71213,-0.855968,3.25727,9.34044,2.04658,6.64331,-1.66042,32.9079,6,0,0,0
0,1405778719,639349,24.8625,16.4317,-39.7292,49.6644,-8.69592,-0.748293,3.28871,9.32709,1.26559,6.83868,-0.983722,32.9062,8,0,0,0
0,1405778720,640350,24.523,16.1191,-39.4046,49.1317,-8.71399,-0.766011,3.29743,9.34844,0.598152,7.16278,-1.46596,32.9103,7,0,0,0
0,1405778721,641359,24.9346,16.2308,-39.7859,49.6799,-8.70995,-0.784367,3.25938,9.33285,0.0774192,7.48302,-1.30968,32.8031,8,0,0,0
0,1405778722,642367,24.8877,16.2864,-39.4429,49.4003,-8.71165,-0.773007,3.2904,9.34436,0.955321,6.95582,-2.43322,32.9356,8,0,0,0
0,1405778723,643369,24.7197,16.4708,-39.8956,49.7394,-8.69092,-0.773415,3.27822,9.32078,0.826255,7.30625,-1.78107,32.9103,8,0,0,0
0,1405778724,644373,24.5698,16.3751,-40.0003,49.7176,-8.68564,-0.777994,3.28032,9.31698,2.07666,7.14258,-1.80858,32.9845,8,0,0,0
0,1405778725,645377,24.6567,16.3091,-39.9528,49.7008,-8.70532,-0.780561,3.30429,9.34399,1.97758,7.50823,-1.6009,32.9777,7,0,0,0
0,1405778726,646385,24.8998,16.3635,-39.5065,49.4826,-8.69211,-0.758609,3.28326,9.32245,0.412913,7.35958,-2.08017,32.9692,7,0,0,0
0,1405778727,647389,24.8176,16.3797,-39.7997,49.6813,-8.71512,-0.781541,3.28987,9.34812,0.907518,6.54569,-1.85307,33.0287,8,0,0,0
0,1405778728,648391,24.8966,16.1625,-39.6701,49.5457,-8.70096,-0.791236,3.27438,9.33029,1.55754,6.38563,-2.23652,33.062,7,0,0,0
0,1405778729,649393,24.9329,16.0843,-39.3592,49.2899,-8.69358,-0.778267,3.28948,9.32763,0.72114,7.13216,-3.10233,32.9519,8,0,0,0
0,1405778730,650400,25.1014,15.969,-39.7652,49.6625,-8.70615,-0.771917,3.27506,9.33375,2.72307,5.37806,-3.64756,33.0833,7,0,0,0
0,1405778731,651404,24.806,16.4201,-39.3997,49.3689,-8.68937,-0.777489,3.30109,9.32775,0.201346,6.67562,-2.86431,33.0642,7,0,0,0
0,1405778732,652409,24.6153,15.793,-39.7595,49.3574,-8.69276,-0.798359,3.26646,9.32047,1.78692,6.33115,-1.74402,33.1457,6,0,0,0
0,1405778733,653411,24.6148,16.2621,-39.6449,49.4172,-8.70563,-0.771392,3.24793,9.32374,-0.328057,6.55008,-2.62139,33.0391,7,0,0,0
0,1405778734,654423,24.7031,16.1904,-39.9757,49.7034,-8.69057,-0.77053,3.28652,9.32314,2.50548,7.27105,-2.43366,33.1509,7,0,0,0
0,1405778735,655430,24.6888,16.3695,-39.7483,49.5724,-8.70759,-0.770165,3.27544,9.33508,0.0126122,6.81776,-2.61502,33.0856,6,0,0,0
0,1405778736,656432,24.9684,15.9832,-39.1026,49.0703,-8.69524,-0.792359,3.29517,9.33237,1.7335,6.77473,-2.07822,33.1882,8,0,0,0
0,1405778737,657434,24.7101,16.0317,-39.5619,49.3229,-8.70668,-0.757685,3.28321,9.33594,1.73341,7.56575,-3.01236,33.2011,7,0,0,0
0,1405778738,658444,24.7513,16.3643,-39.644,49.5183,-8.7102,-0.774863,3.28116,9.33991,-0.151956,7.51413,-1.96916,33.1619,8,0,0,0
0,1405778739,659448,24.7303,16.2266,-39.7332,49.534,-8.69166,-0.774662,3.27533,9.32056,-0.27712,7.27394,-0.970764,33.0791,8,0,0,0
0,1405778740,660453,24.6578,16.1773,-39.6939,49.4502,-8.70282,-0.753563,3.28821,9.33377,0.914994,7.36965,-2.63686,33.208,8,0,0,0
0,1405778741,661459,24.8783,16.212,-39.5153,49.4289,-8.69821,-0.779281,3.28476,9.33037,1.58403,6.26301,-1.92474,33.0678,7,0,0,0
0,1405778742,662465,24.7335,16.1674,-39.7106,49.4981,-8.6904,-0.766229,3.27147,9.31733,1.71317,7.01086,-2.05178,33.1915,6,0,0,0
0,1405778743,663467,25.0726,15.9548,-39.4259,49.372,-8.69507,-0.762287,3.27568,9.32284,1.00279,7.91078,-3.0694,33.2214,8,0,0,0
0,1405778744,664477,24.5411,16.3732,-39.816,49.5546,-8.69639,-0.77481,3.26318,9.32072,2.05684,6.7145,-1.31911,33.1424,7,0,0,0
0,1405778745,665492,24.8395,16.5181,-39.9604,49.8666,-8.70691,-0.780412,3.29559,9.34239,1.50594,6.20267,-2.54039,33.264,8,0,0,0
0,1405778746,666499,24.9663,16.2807,-39.6928,49.6377,-8.70169,-0.918378,3.28221,9.34535,1.18219,7.1538,-0.862451,33.1514,8,0,0,0
0,1405778747,667503,24.8241,16.2731,-39.4446,49.3652,-8.70173,-0.862153,3.28991,9.34274,-0.0564949,6.6517,-0.65542,33.3271,8,0,0,0
0,1405778748,668508,24.478,16.2081,-40.0114,49.6265,-8.69888,-0.748238,3.25945,9.31957,1.04692,7.36763,-3.40028,33.2455,8,0,0,0
0,1405778749,669519,24.9008,15.9492,-39.397,49.26,-8.719,-1.03829,3.27374,9.37104,1.65223,7.01355,-1.74352,33.2498,7,0,0,0
0,1405778750,670520,24.8237,16.0332,-39.5994,49.4104,-8.71164,-0.961567,3.3001,9.36525,2.74943,6.28647,-0.732703,33.2714,7,0,0,0
0,1405778751,671522,24.7071,16.2087,-39.6508,49.4505,-8.71615,-0.876598,3.26227,9.34784,0.562961,7.93353,-0.395109,33.2792,8,0,0,0
0,1405778752,672523,24.6107,15.9694,-39.5683,49.2581,-8.71884,-0.607291,3.24335,9.32235,1.56863,7.3264,-2.27918,33.2708,8,0,0,0
0,1405778753,673527,24.561,16.0081,-39.4759,49.1716,-8.69675,-0.842963,3.24723,9.3214,0.427735,6.67681,-1.97692,33.4146,7,0,0,0
0,1405778754,674534,24.7088,16.175,-39.7402,49.512,-8.70037,-0.756341,3.26718,9.32432,0.302545,6.61514,-0.982776,33.3338,7,0,0,0
0,1405778755,675539,24.8459,16.4027,-39.1894,49.2157,-8.70476,-0.781115,3.26385,9.3293,1.08041,7.09105,-1.89956,33.3133,8,0,0,0
0,1405778756,676542,24.7393,16.1198,-39.4893,49.3081,-8.70623,-0.79298,3.27895,9.33695,0.983916,7.55091,-2.50426,33.3865,8,0,0,0
0,1405778757,677546,24.9003,16.0231,-39.7193,49.5418,-8.70994,-0.763964,3.27902,9.33803,1.80254,8.93387,-2.52899,33.3304,7,0,0,0
0,1405778758,678550,24.5669,16.4391,-39.4812,49.3208,-8.70181,-0.856646,3.24753,9.32747,-0.216561,6.93146,-0.996121,33.4474,7,0,0,0
0,1405778759,679551,24.8192,16.3225,-39.3767,49.3248,-8.69831,-0.742453,3.27098,9.32261,2.27655,6.72018,-1.38058,33.3663,8,0,0,0
0,1405778760,680559,24.959,16.5122,-39.9667,49.9294,-8.70351,-0.783319,3.29203,9.33821,1.65929,6.42645,-1.31739,33.5228,8,0,0,0
0,1405778761,681562,24.7953,15.7894,-39.8165,49.492,-8.69934,-0.786918,3.26014,9.32343,0.641311,7.13689,-1.36934,33.4231,8,0,0,0
0,1405778762,682566,24.7772,16.4841,-39.6754,49.5961,-8.71227,-0.765763,3.2679,9.33645,2.03956,6.76505,-1.14863,33.3992,8,0,0,0
0,1405778763,683576,24.9289,16.2272,-39.3811,49.3523,-8.7141,-0.784703,3.30488,9.35272,0.411513,7.32885,-3.71364,33.4676,7,0,0,0
0,1405778764,684583,24.7576,16.1682,-39.2525,49.1438,-8.72002,-0.770529,3.29324,9.35296,2.53966,5.93228,-1.9373,33.406,8,0,0,0
0,1405778765,685590,24.7003,16.713,-39.6785,49.6368,-8.69659,-0.785503,3.27377,9.32552,1.43995,7.56015,-1.01259,33.5153,8,0,0,0
0,1405778766,686594,25.002,15.9669,-40.0129,49.8103,-8.68397,-0.78104,3.27536,9.31393,1.93938,7.15351,-2.86789,33.4757,7,0,0,0
0,1405778767,687596,24.6492,16.2193,-39.5256,49.3247,-8.71085,-0.756661,3.2832,9.33975,2.37774,6.66926,-1.84253,33.4907,8,0,0,0
0,1405778768,688599,24.6917,16.3472,-39.3584,49.2544,-8.70868,-0.788543,3.29696,9.3452,0.506463,7.59451,-1.33431,33.4573,7,0,0,0
0,1405778769,689604,25.0929,16.4874,-39.9126,49.945,-8.68141,-0.77028,3.28203,9.313,1.92826,6.60891,-1.73647,33.5807,8,0,0,0
0,1405778770,690614,25.0711,16.0192,-39.0811,49.1172,-8.71079,-0.77674,3.25468,9.33135,1.54125,6.90668,-2.57933,33.5142,7,0,0,0
0,1405778771,691615,24.7492,16.3799,-39.5767,49.4686,-8.70192,-0.779455,3.28593,9.33425,1.49825,6.50073,-2.56039,33.5966,8,0,0,0
0,1405778772,692616,24.407,16.2167,-40.0509,49.6262,-8.69478,-0.758153,3.27981,9.32369,0.988412,7.40721,-1.78116,33.569,7,0,0,0
0,1405778773,693619,24.3798,16.0286,-39.8368,49.3787,-8.70337,-0.791765,3.22907,9.31678,0.431963,6.5318,-1.46793,33.5369,7,0,0,0
0,1405778774,694624,24.624,16.4293,-39.6499,49.4811,-8.69087,-0.788366,3.25031,9.31221,0.283828,7.4392,-3.04317,33.5245,8,0,0,0
0,1405778775,695631,24.8434,16.2816,-39.6039,49.505,-8.70714,-0.769078,3.29078,9.33997,2.00904,6.68398,-2.60024,33.6384,7,0,0,0
0,1405778776,696637,24.8875,16.1352,-39.2154,49.1689,-8.67351,-0.788105,3.26647,9.30165,2.4965,7.71009,-1.33893,33.6026,8,0,0,0
0,1405778777,697641,24.5965,16.2375,-39.9073,49.6109,-8.69391,-0.790828,3.2698,9.32207,0.776449,6.03245,-1.24265,33.5917,6,0,0,0
0,1405778778,698643,24.9743,15.9824,-39.4101,49.3184,-8.68251,-0.789943,3.2723,9.31225,0.0203614,6.30426,-2.27172,33.6082,7,0,0,0
0,1405778779,699653,24.2867,16.2896,-39.4007,49.0674,-8.69019,-0.794276,3.25775,9.31467,2.49225,7.0083,-1.40029,33.7065,6,0,0,0
0,1405778780,700658,24.4603,16.1018,-39.7234,49.351,-8.71289,-0.764941,3.3265,9.35763,1.26323,6.41011,-1.89922,33.6504,8,0,0,0
0,1405778781,701660,24.4293,16.2797,-39.6698,49.3509,-8.69845,-0.777662,3.27395,9.32666,2.3903,6.64573,-2.68316,33.727,8,0,0,0
0,1405778782,702665,24.7554,16.4396,-39.5926,49.5042,-8.68591,-0.775342,3.3026,9.32487,3.48973,5.69902,-1.34124,33.6685,7,0,0,0
0,1405778783,703666,24.4715,16.3662,-39.5573,49.3101,-8.6905,-0.779769,3.33522,9.34112,1.71295,6.28425,-3.0353,33.8033,7,0,0,0
0,1405778784,704668,24.6259,16.2249,-39.8064,49.5402,-8.70769,-0.783009,3.28391,9.33922,-0.261381,5.61899,-2.07731,33.7144,7,0,0,0
0,1405778785,705670,25.2573,16.0484,-39.6032,49.6376,-8.6673,-0.762945,3.28683,9.30093,0.97882,6.85761,-2.02562,33.7385,8,0,0,0
0,1405778786,706672,24.7763,16.2085,-38.9704,48.9416,-8.72227,-0.777096,3.25086,9.34076,-0.0554315,7.16932,-1.46856,33.74,7,0,0,0
0,1405778787,707674,24.4024,16.362,-39.356,49.113,-8.68596,-0.767867,3.28034,9.31644,1.22998,7.95287,-3.2122,33.7544,8,0,0,0
0,1405778788,708675,24.7834,16.3741,-39.6275,49.5244,-8.71218,-0.766257,3.27198,9.33783,2.14961,7.56284,-1.88815,33.6442,7,0,0,0
0,1405778789,709683,24.3287,16.2423,-39.8959,49.471,-8.6911,-0.791805,3.2805,9.32329,0.815021,7.5369,-1.1254,33.7106,8,0,0,0
0,1405778790,710684,24.5716,16.2322,-39.8871,49.5805,-8.71623,-0.793944,3.26831,9.34263,1.53993,7.26282,-1.67139,33.7339,8,0,0,0
0,1405778791,711689,24.8329,15.9475,-39.6869,49.4576,-8.69993,-0.794656,3.25998,9.32458,0.690445,7.74512,-1.90218,33.7269,6,0,0,0
0,1405778792,712694,25.0824,16.1761,-39.6751,49.6478,-8.68768,-0.79301,3.2582,9.31238,1.58994,6.36504,-2.22,33.7443,8,0,0,0
0,1405778793,713701,24.901,16.7045,-39.9179,49.9253,-8.70872,-0.786315,3.25828,9.33147,0.552637,6.33701,-1.10397,33.7659,7,0,0,0
0,1405778794,714705,24.8936,16.1318,-39.2586,49.2053,-8.70022,-0.713328,3.26067,9.31851,1.26278,7.38465,-1.79676,33.8084,8,0,0,0
0,1405778795,715706,24.7721,16.067,-39.4915,49.309,-8.69647,-0.858617,3.27254,9.33141,1.48392,6.93908,-1.13493,33.8245,7,0,0,0
0,1405778796,716709,24.9226,15.9297,-39.3976,49.2652,-8.71147,-0.597046,3.2467,9.31597,1.74795,6.55974,-3.38359,33.8769,8,0,0,0
0,1405778797,717716,24.6266,15.8925,-39.6083,49.2733,-8.69747,-0.641724,3.28083,9.31782,1.17659,7.23854,-3.55985,33.8099,8,0,0,0
0,1405778798,718719,24.6542,16.0263,-39.3308,49.1079,-8.71162,-0.746182,3.24922,9.32773,2.29488,7.65357,-1.73917,33.7977,7,0,0,0
0,1405778799,719727,25.1846,16.0804,-39.8016,49.7695,-8.71187,-0.839186,3.29873,9.35321,0.7554,7.89095,-0.322986,33.7741,7,0,0,0
0,1405778800,720734,24.814,16.1247,-39.3846,49.2634,-8.7004,-0.806393,3.26456,9.32763,1.86927,6.56603,-2.82976,33.8965,8,0,0,0
0,1405778801,721739,24.8329,16.0942,-39.627,49.457,-8.6924,-0.750284,3.26739,9.31647,1.58643,6.21591,-2.77609,33.8698,7,0,0,0
0,1405778802,722740,24.5751,16.4533,-39.7141,49.5162,-8.71754,-0.770109,3.28995,9.34946,1.28599,6.23053,-1.76846,33.8996,8,0,0,0
0,1405778803,723741,24.6946,16.0972,-39.541,49.3197,-8.70327,-0.782777,3.28504,9.33548,2.47297,6.13478,-1.95041,33.9274,7,0,0,0
0,1405778804,724748,25.0828,16.1854,-39.3795,49.4151,-8.68552,-0.762315,3.26807,9.31126,1.50247,6.58342,-0.839706,33.9377,8,0,0,0
0,1405778805,725750,24.6224,16.6659,-39.6719,49.577,-8.70122,-0.78099,3.27638,9.33038,1.97391,8.34768,-2.74065,33.9146,8,0,0,0
0,1405778806,726752,24.7951,16.5357,-39.5254,49.5023,-8.68287,-0.783834,3.29279,9.31928,1.90985,7.43769,-2.3029,33.9081,8,0,0,0
0,1405778807,727758,24.8931,16.6245,-39.3078,49.408,-8.70772,-0.780325,3.27863,9.33717,2.13319,8.2336,-2.83812,33.8987,8,0,0,0
0,1405778808,728764,24.6314,16.3143,-39.5539,49.3698,-8.72659,-0.771423,3.26291,9.34853,1.26031,6.55269,-1.9023,33.8824,8,0,0,0
0,1405778809,729772,24.8495,16.3768,-39.8619,49.7461,-8.69135,-0.796123,3.28638,9.32597,0.73218,7.84367,-2.93083,33.9352,8,0,0,0
0,1405778810,730776,24.7006,16.0177,-39.8062,49.5098,-8.69771,-0.768035,3.26639,9.32252,1.08262,7.07436,-2.55793,33.9538,6,0,0,0
0,1405778811,731778,24.8232,16.0273,-39.4235,49.2674,-8.69487,-0.788592,3.26417,9.3208,1.046,7.54648,-2.54833,33.9703,8,0,0,0
0,1405778812,732781,24.8545,16.0434,-39.8209,49.6069,-8.6837,-0.77416,3.28611,9.31689,1.97799,6.59544,-3.30721,33.9949,7,0,0,0
0,1405778813,733791,24.7649,16.2445,-39.5578,49.4166,-8.69218,-0.80048,3.26225,9.31864,1.376,7.82337,-1.09226,34.0975,8,0,0,0
0,1405778814,734794,24.3297,15.9223,-38.8327,48.5122,-8.6813,-0.770759,3.28871,9.31529,0.57156,6.92833,-1.78832,33.9552,8,0,0,0
0,1405778815,735797,24.7545,16.4536,-39.3754,49.3349,-8.71433,-0.772665,3.28446,9.34475,2.83297,7.54136,-2.30338,33.9633,8,0,0,0
0,1405778816,736801,25.1159,16.1457,-39.4292,49.4586,-8.70527,-0.775346,3.25934,9.32771,1.32851,6.65535,-2.88332,34.0305,7,0,0,0
0,1405778817,737807,24.6943,16.3115,-39.756,49.5623,-8.70834,-0.781197,3.27252,9.33567,1.0337,8.04593,-0.355951,33.985,6,0,0,0
0,1405778818,738808,24.8743,15.9039,-39.3675,49.2084,-8.70567,-0.785894,3.26638,9.33143,2.75445,7.08666,-2.43813,33.9368,7,0,0,0
0,1405778819,739816,24.8942,16.2992,-39.5301,49.4774,-8.69662,-0.746101,3.30199,9.33226,0.596781,7.60209,-2.94947,33.9841,7,0,0,0
0,1405778820,740827,24.9948,15.7777,-39.7227,49.5133,-8.6754,-0.809457,3.24767,9.29867,-0.133893,8.23587,-1.50221,34.0745,7,0,0,0
0,1405778821,741829,24.7075,16.5349,-39.7419,49.6315,-8.70555,-0.756923,3.26513,9.32848,1.57788,6.541,-2.9732,34.0155,7,0,0,0
0,1405778822,742831,24.7926,16.4216,-39.169,49.1788,-8.70999,-0.781876,3.29968,9.34682,1.38972,6.99306,-0.942581,34.0489,7,0,0,0
0,1405778823,743838,25.0382,16.297,-39.2361,49.3151,-8.69881,-0.776009,3.27259,9.32637,0.933732,6.7363,-1.21171,34.0718,7,0,0,0
0,1405778824,744841,25.0323,16.457,-39.3131,49.4264,-8.69893,-0.794392,3.2999,9.33766,0.168218,6.5064,-2.21064,34.0235,6,0,0,0
0,1405778825,745854,24.3504,16.6277,-39.8665,49.5859,-8.69944,-0.806104,3.25645,9.32387,-0.0373476,7.05133,-2.5955,34.1084,9,0,0,0
0,1405778826,746859,24.5697,16.7446,-39.2883,49.2709,-8.6948,-0.8032,3.24984,9.31698,0.62795,6.2998,-1.7091,34.034,6,0,0,0
0,1405778827,747863,24.904,16.2958,-39.328,49.3199,-8.67189,-0.78878,3.26044,9.29808,1.17513,7.35079,-2.52727,34.0555,8,0,0,0
0,1405778828,748868,24.7771,16.1326,-39.8498,49.6203,-8.72464,-0.768755,3.27275,9.34993,1.38016,8.03159,-2.66417,34.1322,8,0,0,0
0,1405778829,749872,24.4096,16.0241,-39.2196,48.8956,-8.71158,-0.785012,3.26956,9.33799,0.220664,6.87719,-2.22036,34.1381,8,0,0,0
0,1405778830,750877,24.9123,16.4071,-39.7451,49.694,-8.70593,-0.76191,3.28706,9.33694,1.09566,6.82535,-1.23196,34.0998,8,0,0,0
0,1405778831,751879,24.8932,16.0612,-39.7333,49.5617,-8.72079,-0.781051,3.26754,9.34553,-0.802199,7.87612,-3.23725,34.1437,7,0,0,0
0,1405778832,752891,24.874,16.6944,-39.5269,49.5963,-8.70029,-0.78961,3.25948,9.32431,2.71001,6.86876,-2.93083,34.1593,7,0,0,0
0,1405778833,753899,24.6968,16.1638,-39.1415,49.023,-8.68556,-0.800408,3.28459,9.3203,1.92169,7.41361,-1.44913,34.1084,7,0,0,0
0,1405778834,754904,24.3485,16.7882,-39.9971,49.744,-8.68664,-0.805873,3.26897,9.3163,-0.16793,7.19024,-2.31365,34.1572,8,0,0,0
0,1405778835,755911,24.5056,16.3337,-39.4393,49.2217,-8.6921,-0.77571,3.27009,9.31922,0.889818,6.61787,-1.4761,34.1883,9,0,0,0
0,1405778836,756916,24.6107,16.2731,-39.3115,49.1517,-8.70171,-0.789794,3.31112,9.34383,0.893308,7.29978,-3.0338,34.2137,8,0,0,0
0,1405778837,757922,24.5618,16.3774,-39.1116,49.0023,-8.68559,-0.776225,3.29839,9.32316,1.80746,6.83946,-1.87974,34.2341,7,0,0,0
0,1405778838,758929,24.5305,15.8784,-39.2018,48.8943,-8.68634,-0.772056,3.27092,9.31383,2.09001,6.94824,-1.51969,34.1597,7,0,0,0
0,1405778839,759937,24.9744,16.3062,-39.387,49.406,-8.71805,-0.78594,3.26819,9.34362,0.475697,7.7709,-2.72722,34.2534,8,0,0,0
0,1405778840,760938,24.6883,16.0647,-39.6972,49.4313,-8.6981,-0.786646,3.27644,9.32796,0.114001,7.08017,-0.792833,34.2095,8,0,0,0
0,1405778841,761942,24.9795,16.18,-39.5913,49.5302,-8.70769,-0.790263,3.2772,9.33748,1.4261,6.58199,-2.05176,34.2295,8,0,0,0
0,1405778842,762947,24.8573,15.9801,-39.4976,49.3286,-8.70425,-0.768112,3.22875,9.31551,0.798663,7.46243,-1.60719,34.2011,7,0,0,0
0,1405778843,763949,24.4739,16.4846,-39.5682,49.3594,-8.71787,-0.802523,3.23962,9.3349,1.75292,7.70017,-2.01937,34.0916,7,0,0,0
0,1405778844,764950,24.4041,16.7657,-39.6678,49.4994,-8.70385,-0.777972,3.24442,9.3214,2.49844,7.79448,-0.918073,34.1707,8,0,0,0
0,1405778845,765956,24.9957,16.4041,-39.7383,49.7294,-8.69741,-0.882939,3.24286,9.3242,2.58482,5.93962,-1.8693,34.2038,7,0,0,0
0,1405778846,766964,24.9361,15.9434,-39.2802,49.1827,-8.71199,-0.785435,3.28235,9.34289,1.95083,7.65745,-2.04976,34.2326,8,0,0,0
0,1405778847,767971,24.647,16.5269,-39.2971,49.243,-8.69924,-0.560416,3.2406,9.30013,1.19028,7.25116,-2.08854,34.1639,7,0,0,0
0,1405778848,768977,24.4606,16.1032,-39.6276,49.2745,-8.68329,-0.959315,3.26001,9.32457,0.433028,6.82616,-1.60097,34.1839,7,0,0,0
0,1405778849,769978,24.4435,16.5254,-39.3676,49.1974,-8.71064,-0.757822,3.25767,9.3307,0.939647,7.26239,-0.498955,34.2353,7,0,0,0
0,1405778850,770980,24.8723,16.1205,-39.348,49.2622,-8.71417,-0.77149,3.2681,9.33876,2.46595,7.60266,-2.06151,34.2511,8,0,0,0
0,1405778851,771982,24.6975,16.1953,-39.6505,49.441,-8.69001,-0.776187,3.24242,9.30764,1.07121,7.08734,-3.46923,34.2838,8,0,0,0
0,1405778852,772985,24.6646,16.213,-39.8212,49.5674,-8.69952,-0.782508,3.24795,9.31896,0.487667,8.09452,-1.51582,34.2893,7,0,0,0
0,1405778853,773993,24.9508,15.7101,-38.8536,48.7745,-8.69261,-0.765865,3.27044,9.319,1.31646,7.40608,-2.08409,34.2663,7,0,0,0
0,1405778854,774996,24.4235,16.6124,-39.4775,49.3047,-8.69285,-0.777729,3.28622,9.32576,1.4743,8.5952,-2.20892,34.2367,7,0,0,0
0,1405778856,776005,24.3251,16.6167,-39.644,49.391,-8.72888,-0.77761,3.27316,9.35477,0.676472,8.61346,-1.46227,34.3217,7,0,0,0
0,1405778857,777013,24.6765,16.1328,-39.5915,49.3628,-8.70694,-0.781461,3.2763,9.33572,0.249706,6.19962,-2.00134,34.2279,7,0,0,0
0,1405778858,778021,25.1846,16.1959,-39.8762,49.8666,-8.69285,-0.779683,3.28004,9.32374,1.21603,7.3589,-2.57723,34.2464,9,0,0,0
0,1405778859,779028,24.839,16.0664,-39.7628,49.56,-8.7007,-0.768792,3.27307,9.32771,1.63481,7.24591,-1.58997,34.2473,8,0,0,0
0,1405778860,780033,24.4566,16.2131,-39.6294,49.31,-8.71481,-0.803334,3.27908,9.34588,1.14532,7.32487,-1.52732,34.272,6,0,0,0
0,1405778861,781037,24.6096,16.3326,-39.5533,49.3644,-8.70648,-0.77372,3.29018,9.33952,0.240735,7.44352,-2.56559,34.2731,8,0,0,0
0,1405778862,782039,25.275,16.0068,-39.7205,49.7268,-8.72338,-0.80898,3.29434,9.35973,2.69478,7.38578,-1.43864,34.3167,8,0,0,0
0,1405778863,783048,25.0916,16.1602,-39.3471,49.3856,-8.70298,-0.767166,3.24959,9.3215,0.337996,7.45143,-2.24653,34.3856,8,0,0,0
0,1405778864,784052,24.9703,16.1231,-39.5983,49.5126,-8.70933,-0.770496,3.27775,9.33754,0.957118,6.43138,-1.78669,34.317,8,0,0,0
0,1405778865,785059,25.0576,15.843,-39.1928,49.1423,-8.69674,-0.782627,3.25411,9.31853,1.50735,8.20323,-1.21521,34.353,7,0,0,0
0,1405778866,786063,25.0466,16.0924,-39.1299,49.1676,-8.69191,-0.77544,3.26823,9.31837,0.571816,8.06691,-2.28344,34.3646,8,0,0,0
0,1405778867,787067,24.467,16.447,-39.6019,49.3706,-8.70864,-0.775632,3.27879,9.33769,0.422556,5.90653,-2.84836,34.3677,6,0,0,0
0,1405778868,788070,24.7989,16.0522,-39.3672,49.2182,-8.69414,-0.791398,3.27797,9.32521,-0.102874,8.3083,-2.87533,34.3954,7,0,0,0
0,1405778869,789074,24.7515,16.4806,-38.7469,48.8422,-8.71518,-0.792936,3.29249,9.35006,1.10981,6.32519,-3.53694,34.4326,7,0,0,0
0,1405778870,790081,25.0162,16.0184,-39.5324,49.4491,-8.67666,-0.75365,3.2556,9.29792,0.905673,8.01385,-1.27212,34.4703,6,0,0,0
0,1405778871,791089,24.6285,16.1813,-39.4944,49.2768,-8.69202,-0.798465,3.26504,9.3193,0.969655,7.55902,-1.49772,34.4575,7,0,0,0
0,1405778872,792098,24.7948,16.8194,-39.8681,49.8713,-8.72237,-0.829717,3.25754,9.34772,2.33123,6.78556,-2.56609,34.4213,7,0,0,0
0,1405778873,793107,24.6931,16.8181,-39.2589,49.3342,-8.7206,-0.762756,3.2969,9.35415,2.17522,7.79832,-2.5918,34.4909,8,0,0,0
0,1405778874,794117,24.6598,16.5546,-39.6389,49.5318,-8.70233,-0.792269,3.27811,9.33297,0.738316,7.25128,-3.55545,34.3936,7,0,0,0
0,1405778875,795120,24.4768,16.2366,-39.7152,49.3968,-8.72722,-0.753382,3.2975,9.35978,1.4759,7.11581,-1.94547,34.3784,8,0,0,0
0,1405778876,796121,24.6423,16.3561,-39.5377,49.376,-8.71289,-0.774764,3.28175,9.34262,1.44736,6.9501,-3.1146,34.5494,7,0,0,0
0,1405778877,797126,24.4566,16.44,-39.5469,49.319,-8.69502,-0.786397,3.27655,9.3251,1.71033,6.85009,-2.07499,34.4918,8,0,0,0
0,1405778878,798131,24.5284,16.3085,-39.9416,49.628,-8.71491,-0.784987,3.24732,9.33333,2.51192,6.37789,-2.86528,34.3652,9,0,0,0
0,1405778879,799134,24.4917,16.5613,-39.8133,49.5905,-8.69248,-0.775423,3.28645,9.3253,1.54195,6.02225,-2.23763,34.4879,7,0,0,0
0,1405778880,800139,24.47,16.2307,-39.8386,49.4907,-8.7121,-0.76288,3.2908,9.34409,0.660628,7.38198,-2.05024,34.5314,7,0,0,0
0,1405778881,801143,24.5567,16.0231,-39.471,49.1704,-8.70713,-0.750148,3.26601,9.32972,2.08635,6.39953,-1.48336,34.4987,7,0,0,0
0,1405778882,802147,24.7821,16.3213,-39.8979,49.723,-8.67398,-0.783042,3.27261,9.30382,0.774574,6.93498,-2.04355,34.5179,8,0,0,0
0,1405778883,803155,24.7539,16.3067,-39.2474,49.1836,-8.68309,-0.776829,3.27704,9.31335,1.55477,5.56524,-2.0874,34.4331,8,0,0,0
0,1405778884,804158,24.5769,16.0922,-39.5574,49.2724,-8.69939,-0.78271,3.25063,9.3198,1.82973,6.34222,-2.60376,34.4961,8,0,0,0
0,1405778885,805160,24.9256,16.2814,-39.4743,49.4428,-8.71489,-0.79057,3.29204,9.34943,2.29182,7.36755,-1.72805,34.4869,7,0,0,0
0,1405778886,806161,24.8354,16.4508,-39.2968,49.3119,-8.69976,-0.811377,3.27915,9.33258,0.974586,7.49735,-3.21519,34.4935,7,0,0,0
0,1405778887,807170,24.4486,15.9863,-39.5872,49.198,-8.68224,-0.790783,3.26616,9.30991,0.296373,7.8439,-2.27074,34.6071,7,0,0,0
0,1405778888,808171,24.7198,16.0952,-39.5996,49.3787,-8.68446,-0.782945,3.26553,9.3111,0.232283,7.03663,-0.865257,34.6254,7,0,0,0
0,1405778889,809177,24.6168,16.023,-39.7079,49.3907,-8.70392,-0.775345,3.2831,9.33478,0.875148,5.71564,-2.53852,34.6462,8,0,0,0
0,1405778890,810184,24.6817,16.385,-39.6518,49.4967,-8.72026,-0.799336,3.25668,9.3428,0.929811,6.63661,-1.91746,34.5295,7,0,0,0
0,1405778891,811188,24.7181,15.7555,-39.1085,48.8743,-8.71997,-0.773571,3.2656,9.34347,1.53733,7.99982,-2.60865,34.591,8,0,0,0
0,1405778892,812195,24.9083,16.6119,-39.0814,49.2314,-8.69389,-0.755098,3.28633,9.32491,2.03731,5.40538,-2.30299,34.6978,8,0,0,0
0,1405778893,813203,24.7342,16.222,-39.9509,49.7092,-8.71719,-0.780351,3.2685,9.34245,0.308994,6.51221,-1.96891,34.7108,7,0,0,0
0,1405778894,814212,24.9331,16.3094,-39.5035,49.4791,-8.70638,-0.759077,3.27107,9.33152,1.7937,6.414,-1.74817,34.6697,8,0,0,0
0,1405778895,815215,24.6325,15.9867,-39.4788,49.2027,-8.69798,-0.798464,3.26459,9.3247,2.31871,8.10785,-2.20118,34.7066,7,0,0,0
0,1405778896,816223,24.8016,15.9396,-39.644,49.4049,-8.71142,-0.792897,3.24879,9.33125,0.626427,7.20389,-1.99803,34.6731,8,0,0,0
0,1405778897,817228,24.8536,16.0883,-39.5611,49.4127,-8.71376,-0.793343,3.25866,9.33691,1.05034,7.43991,-2.68118,34.709,8,0,0,0
0,1405778898,818232,24.8959,16.1095,-39.2894,49.2238,-8.70238,-0.770906,3.26977,9.32829,1.26451,7.94023,-2.83958,34.75,8,0,0,0
0,1405778899,819240,25.1929,15.9159,-39.5027,49.4819,-8.68986,-0.835902,3.29556,9.3313,0.185324,7.22781,-1.85021,34.7349,7,0,0,0
0,1405778900,820250,25.0148,16.4104,-39.5971,49.6283,-8.71227,-0.773621,3.24981,9.33078,1.67696,8.12616,-2.16895,34.7521,8,0,0,0
0,1405778901,821254,24.9248,16.1627,-39.6362,49.5328,-8.7255,-0.79037,3.29672,9.36095,0.9858,6.52176,-2.61042,34.6322,8,0,0,0
0,1405778902,822256,24.5703,16.4371,-39.537,49.3665,-8.71975,-0.785397,3.26474,9.34395,1.6977,7.92906,-3.06896,34.6544,7,0,0,0
0,1405778903,823264,24.7113,16.266,-39.84,49.6231,-8.71162,-0.788808,3.2806,9.34221,1.67353,7.85851,-1.87839,34.7115,7,0,0,0
0,1405778904,824268,24.4389,16.586,-39.4037,49.2444,-8.70061,-0.787751,3.2881,9.3345,2.19409,7.50897,-3.49115,34.7419,7,0,0,0
0,1405778905,825270,24.7028,16.2347,-39.9854,49.7255,-8.70437,-0.770447,3.27008,9.33023,1.81505,7.00624,-1.45984,34.8093,7,0,0,0
0,1405778906,826275,24.3543,16.5002,-39.7146,49.423,-8.69825,-0.803843,3.27807,9.33013,1.31537,7.54898,-1.94775,34.7815,8,0,0,0
0,1405778907,827283,24.4404,16.5468,-39.4744,49.2885,-8.707,-0.775371,3.26567,9.33154,0.580664,6.68084,-1.37089,34.9138,7,0,0,0
0,1405778908,828291,24.7749,16.0876,-39.6066,49.4094,-8.68525,-0.791167,3.27525,9.31594,0.64741,7.90807,-2.33292,34.8108,7,0,0,0
0,1405778909,829300,25.0478,16.3724,-39.2107,49.3247,-8.71381,-0.770854,3.25273,9.333,2.41839,6.73094,-2.08098,34.8079,7,0,0,0
0,1405778910,830307,24.9947,15.9336,-39.3893,49.2963,-8.69274,-0.787104,3.28675,9.32663,0.251293,6.41955,-3.0815,34.8217,8,0,0,0
0,1405778911,831313,24.5923,16.2613,-39.6084,49.3765,-8.68159,-0.790226,3.2801,9.31416,1.92629,7.28235,-1.45528,34.8265,7,0,0,0
0,1405778912,832314,24.7541,15.9046,-39.4777,49.2362,-8.68556,-0.797766,3.23789,9.30373,1.02747,6.94585,-1.69271,34.9217,6,0,0,0
0,1405778913,833321,24.9107,16.2955,-38.9214,48.9996,-8.71264,-0.768627,3.27887,9.34087,0.985203,8.02122,-2.66972,34.7901,8,0,0,0
0,1405778914,834323,24.5394,16.4308,-39.3555,49.2037,-8.70923,-0.778163,3.27788,9.33813,1.83468,7.67642,-1.90054,35.0028,7,0,0,0
0,1405778915,835328,24.8052,16.3075,-39.3003,49.2518,-8.70052,-0.794848,3.28818,9.33504,1.12199,6.16834,-1.9017,34.8633,6,0,0,0
0,1405778916,836335,25.0726,16.1554,-39.3562,49.3816,-8.71292,-0.771291,3.30304,9.34986,1.11862,6.73015,-3.22235,34.9177,7,0,0,0
0,1405778917,837338,24.6744,16.256,-39.6215,49.4262,-8.68727,-0.784058,3.27306,9.31646,0.990432,7.66044,-2.19668,34.9424,6,0,0,0
0,1405778918,838339,25.0108,16.1962,-39.4047,49.4023,-8.69771,-0.777202,3.24305,9.31512,3.22047,6.96563,-2.39224,34.8991,7,0,0,0
0,1405778919,839344,24.6623,16.11,-39.5002,49.275,-8.71944,-0.760415,3.2721,9.34417,1.7278,7.43864,-2.13748,35.0578,7,0,0,0
0,1405778920,840345,24.9401,16.2049,-39.3371,49.3155,-8.69861,-0.770916,3.2902,9.33196,1.55154,7.09788,-1.526,34.9366,7,0,0,0
0,1405778921,841348,24.9863,16.4497,-39.576,49.6101,-8.71432,-0.762357,3.24833,9.33125,0.373477,7.06234,-0.753455,34.978,8,0,0,0
0,1405778922,842357,24.8008,16.2909,-39.5814,49.4688,-8.68484,-0.772701,3.26394,9.31003,1.26599,7.20802,-2.2295,34.9001,8,0,0,0
0,1405778923,843358,24.4265,16.3147,-39.7759,49.4464,-8.70714,-0.776927,3.28691,9.33926,0.801104,7.40511,-2.09225,34.9588,8,0,0,0
0,1405778924,844359,24.6715,15.8804,-39.4612,49.1737,-8.714,-0.782756,3.27251,9.34108,0.828135,8.07002,-1.70711,34.9687,7,0,0,0
0,1405778925,845364,24.7427,16.321,-39.4427,49.3386,-8.71657,-0.795398,3.27167,9.34426,1.56273,7.83638,-3.39505,35.0193,7,0,0,0
0,1405778926,846370,24.944,15.8242,-38.9029,48.8472,-8.68323,-0.764157,3.26273,9.3074,1.08767,6.94911,-2.30663,34.9628,7,0,0,0
0,1405778927,847373,24.8933,16.1674,-39.7066,49.575,-8.691,-0.794285,3.27318,9.32084,0.832044,6.29165,-1.72062,35.032,8,0,0,0
0,1405778928,848379,24.6584,15.9735,-39.4372,49.1781,-8.71059,-0.79728,3.284,9.34316,0.242894,7.55463,-1.11093,35.1473,7,0,0,0
0,1405778929,849389,24.7809,16.6777,-39.7697,49.738,-8.72478,-0.780837,3.26827,9.34949,2.32004,7.31064,-1.90384,35.0607,7,0,0,0
0,1405778930,850390,25.0123,15.8637,-39.4124,49.3012,-8.69898,-0.773778,3.29066,9.33271,2.04265,8.22095,-1.94542,35.0642,8,0,0,0
0,1405778931,851394,24.4163,16.3446,-39.6951,49.3863,-8.70947,-0.743342,3.26155,9.3298,1.29276,6.82218,-2.72718,34.9723,7,0,0,0
0,1405778932,852395,24.8234,15.9943,-39.353,49.2004,-8.69834,-1.06914,3.23655,9.34234,-0.121876,7.89331,-2.39502,35.113,7,0,0,0
0,1405778933,853397,24.8442,15.9534,-39.059,48.9628,-8.71207,-0.784539,3.23646,9.32686,1.86921,8.65679,-1.95041,35.0596,7,0,0,0
0,1405778934,854408,24.8505,16.2686,-39.5265,49.4424,-8.69193,-0.772464,3.28293,9.32331,0.450965,7.02528,-3.10132,35.0623,8,0,0,0
0,1405778935,855414,24.5632,16.2173,-39.5066,49.2659,-8.70681,-0.77347,3.22808,9.31811,1.71625,6.31095,-2.72203,34.9987,7,0,0,0
0,1405778936,856432,24.775,16.2572,-39.5714,49.4368,-8.70526,-0.766759,3.25922,9.32695,1.04918,6.63751,-2.49459,35.1908,9,0,0,0
0,1405778937,857442,25.1038,16.3842,-39.2299,49.3723,-8.68476,-0.792226,3.2615,9.31075,2.46752,7.5759,-2.03718,35.0314,7,0,0,0
0,1405778938,858449,24.4288,16.1926,-39.6966,49.3436,-8.71336,-0.787674,3.26117,9.33693,1.36431,6.84588,-2.82156,35.1762,7,0,0,0
0,1405778939,859455,24.7253,16.0995,-39.4982,49.3016,-8.7083,-0.761579,3.28147,9.33716,1.00059,6.95109,-2.97645,35.2169,8,0,0,0
0,1405778940,860459,24.4962,16.6663,-39.1407,49.0899,-8.69997,-0.778731,3.2818,9.33092,1.30662,7.8859,-1.69281,35.2112,7,0,0,0
0,1405778941,861465,25.2155,16.359,-39.4286,49.5787,-8.71955,-0.788117,3.2832,9.35046,1.30659,7.44849,-2.59969,35.2023,8,0,0,0
0,1405778942,862468,24.9702,16.032,-39.6712,49.5413,-8.72239,-0.780318,3.26727,9.34688,1.3048,7.04078,-0.777732,35.1277,8,0,0,0
0,1405778943,863475,24.752,16.2169,-39.2905,49.1873,-8.68664,-0.77288,3.29486,9.32262,0.640469,8.01383,-0.683926,35.1193,8,0,0,0
0,1405778944,864478,24.7615,16.3521,-39.6663,49.5373,-8.71378,-0.775425,3.29015,9.34646,0.272053,7.14152,-2.35549,35.1297,8,0,0,0
0,1405778945,865487,25.1474,16.1042,-39.5959,49.5941,-8.71096,-0.801137,3.26175,9.33604,1.45122,7.26791,-2.3518,35.2516,8,0,0,0
0,1405778946,866494,24.8086,16.3547,-39.7955,49.6651,-8.70332,-0.805056,3.26712,9.33113,2.13896,7.85276,-1.77403,35.2295,8,0,0,0
0,1405778947,867500,24.5364,16.0633,-38.9868,48.7856,-8.71063,-0.783707,3.26969,9.33704,1.7454,8.08502,-2.68449,35.156,8,0,0,0
0,1405778948,868503,24.2005,16.2229,-39.3037,48.9247,-8.70047,-0.792458,3.2645,9.32648,1.11971,8.08186,-2.47745,35.1888,7,0,0,0
0,1405778949,869506,24.9349,15.882,-39.0416,48.9718,-8.68463,-0.787967,3.25766,9.30892,1.55176,6.93428,-1.87952,35.1408,8,0,0,0
0,1405778950,870507,24.8031,15.9606,-39.4152,49.229,-8.71846,-0.782005,3.25678,9.33968,1.0333,7.28746,-2.26345,35.2715,7,0,0,0
0,1405778951,871514,24.7437,16.2092,-39.2031,49.1108,-8.6989,-0.7818,3.28698,9.332,1.11786,6.83619,-1.71668,35.2732,7,0,0,0
0,1405778952,872515,24.6471,16.3902,-39.3602,49.2478,-8.71206,-0.774409,3.27167,9.33828,1.4907,7.49271,-1.55334,35.1607,7,0,0,0
0,1405778953,873521,24.8452,16.3388,-39.5636,49.4926,-8.70435,-0.763675,3.23538,9.31754,1.58327,6.34303,-1.29991,35.2209,8,0,0,0
0,1405778954,874524,24.7146,16.2391,-39.4504,49.3037,-8.70603,-0.777532,3.27724,9.33487,1.66269,7.4285,-3.33008,35.3374,7,0,0,0
0,1405778955,875531,24.6427,16.7397,-39.2062,49.2403,-8.70625,-0.784845,3.2855,9.33859,1.84808,8.14608,-3.21914,35.2417,8,0,0,0
0,1405778956,876538,24.3174,16.2718,-39.4244,49.0957,-8.69227,-0.76495,3.24557,9.3099,1.6177,8.4467,-2.32854,35.3936,7,0,0,0
0,1405778957,877541,24.3674,16.3874,-39.638,49.3304,-8.68237,-0.810045,3.25439,9.30757,1.08695,8.22184,-1.76017,35.3323,7,0,0,0
0,1405778958,878544,24.6569,15.951,-39.7371,49.4109,-8.73337,-0.763017,3.27224,9.35743,1.47702,7.48329,-2.66965,35.3023,7,0,0,0
0,1405778959,879546,24.4279,16.4666,-39.2991,49.115,-8.7002,-0.776716,3.28529,9.33219,0.688926,6.73004,-3.48986,35.3869,7,0,0,0
0,1405778960,880551,24.6339,16.1627,-39.6719,49.4158,-8.70479,-0.788745,3.25277,9.32609,-0.137273,7.73663,-2.47053,35.3233,7,0,0,0
0,1405778961,881553,24.8343,16.1595,-39.6502,49.4976,-8.70061,-0.777115,3.24287,9.31777,0.753133,7.22431,-3.52324,35.3809,6,0,0,0
0,1405778962,882556,24.9241,15.6492,-38.9525,48.8201,-8.7093,-0.787791,3.27908,9.33943,2.45956,6.82519,-1.47256,35.3828,7,0,0,0
0,1405778963,883563,24.6414,16.5325,-39.7118,49.5737,-8.72289,-0.771746,3.23541,9.33554,0.866261,7.98837,-1.9395,35.3355,7,0,0,0
0,1405778964,884574,24.6798,16.1444,-39.3426,49.1688,-8.70365,-0.78233,3.25,9.32352,0.622077,7.95546,-1.35117,35.3319,8,0,0,0
0,1405778965,885578,24.8522,16.0532,-39.1367,49.0614,-8.69966,-0.785681,3.25845,9.32303,0.743956,7.26356,-2.41906,35.3928,8,0,0,0
0,1405778966,886586,24.6284,16.6419,-39.5493,49.4738,-8.70603,-0.753055,3.26266,9.32775,1.41898,5.89481,-2.72088,35.4534,7,0,0,0
0,1405778967,887590,24.6324,16.3925,-39.2178,49.1274,-8.7184,-0.778907,3.23715,9.33254,1.91519,6.70646,-2.64527,35.4087,8,0,0,0
0,1405778968,888593,24.7028,16.2073,-39.6114,49.4162,-8.73002,-0.777791,3.28261,9.35915,2.24734,7.1419,-0.758278,35.4094,7,0,0,0
0,1405778969,889597,24.649,15.8328,-39.6765,49.3201,-8.701,-0.792009,3.27533,9.33072,1.09009,7.47693,-1.57999,35.4211,8,0,0,0
0,1405778970,890602,25.1214,15.9066,-39.2776,49.2629,-8.71467,-0.790553,3.25202,9.33521,1.63764,7.35502,-1.6719,35.4139,8,0,0,0
0,1405778971,891606,24.6393,16.3489,-39.046,48.9793,-8.73556,-0.691636,3.2568,9.34854,0.939238,6.85687,-3.06502,35.3596,8,0,0,0
0,1405778972,892614,24.6853,16.5345,-39.4519,49.3883,-8.70296,-0.755051,3.27788,9.33039,0.367589,8.18858,-0.732443,35.4109,8,0,0,0
0,1405778973,893621,24.8479,16.0108,-39.4204,49.272,-8.70026,-0.765897,3.24747,9.31811,1.74426,7.09752,-1.70416,35.4002,7,0,0,0
0,1405778974,894624,24.3463,16.5242,-39.2098,49.0225,-8.71995,-0.708879,3.27,9.33986,0.345691,8.25381,-1.36698,35.4145,8,0,0,0
0,1405778975,895628,24.6487,16.1032,-39.5734,49.3247,-8.69981,-0.775325,3.30162,9.33748,1.13054,7.94721,-4.25018,35.4384,7,0,0,0
0,1405778976,896631,24.9625,15.9399,-39.1563,49.096,-8.69926,-0.784997,3.27157,9.32719,1.66972,6.87717,-2.35605,35.4778,8,0,0,0
0,1405778977,897635,24.5461,16.2539,-39.4352,49.2122,-8.72664,-0.786653,3.27894,9.35545,1.27368,8.35679,-1.38884,35.4492,7,0,0,0
0,1405778978,898637,24.5653,16.1113,-39.5668,49.2804,-8.69509,-0.829772,3.30899,9.34037,1.95551,7.63579,-1.83348,35.4657,8,0,0,0
0,1405778979,899643,24.7113,16.1241,-39.2155,49.0764,-8.70803,-0.792437,3.25045,9.32862,1.03807,7.18918,-2.90684,35.5119,7,0,0,0
0,1405778980,900646,24.7572,16.3488,-39.2875,49.2312,-8.70474,-0.737399,3.27598,9.32996,1.78053,5.97843,-2.30201,35.5682,8,0,0,0
0,1405778981,901653,24.588,16.3229,-39.6688,49.4431,-8.68842,-0.912163,3.23994,9.31762,1.47719,6.50143,-3.06809,35.5142,8,0,0,0
0,1405778982,902658,24.8869,15.7908,-39.2713,49.1014,-8.67445,-0.762037,3.36125,9.33406,1.6729,6.25499,-1.62797,35.5189,7,0,0,0
0,1405778983,903664,24.6163,15.8265,-39.3368,49.0288,-8.71497,-0.766137,3.26217,9.337,1.52856,6.49207,-2.63702,35.4961,7,0,0,0
0,1405778984,904674,24.6599,15.9837,-39.205,48.9962,-8.68761,-0.762958,3.28031,9.31757,2.00585,8.16668,-3.33115,35.5073,8,0,0,0
0,1405778985,905676,24.7113,15.9731,-39.55,49.2949,-8.69192,-0.747769,3.28573,9.32227,0.600476,6.92655,-2.88194,35.5342,7,0,0,0
0,1405778986,906683,24.976,15.4499,-39.2803,49.0453,-8.67699,-0.780813,3.29079,9.31285,2.56219,7.25211,-2.39712,35.5383,8,0,0,0
0,1405778987,907687,24.637,15.7655,-39.457,49.1161,-8.70681,-0.783448,3.28547,9.33898,2.53412,7.21163,-2.41858,35.45,8,0,0,0
0,1405778988,908689,25.0054,15.9686,-39.1057,49.0869,-8.70873,-0.746115,3.32003,9.34993,1.02063,6.71727,-2.7535,35.5275,8,0,0,0
0,1405778989,909691,24.0832,16.0065,-39.8912,49.2698,-8.70803,-0.770223,3.29398,9.34202,0.17126,7.0242,-2.35811,35.5782,7,0,0,0
0,1405778990,910692,24.1408,16.4655,-39.4238,49.0727,-8.7004,-0.77363,3.2869,9.33269,2.45213,6.64108,-1.73594,35.5679,8,0,0,0
0,1405778991,911697,25.0029,15.9496,-39.1664,49.1278,-8.68932,-0.762511,3.28171,9.31962,2.24905,8.10669,-2.77943,35.6116,7,0,0,0
0,1405778992,912699,24.2982,16.1277,-38.9799,48.682,-8.71853,-0.960766,3.22146,9.34418,0.860233,7.18854,-2.43195,35.5596,7,0,0,0
0,1405778993,913704,24.313,16.0181,-39.8463,49.3501,-8.67563,-0.864969,3.31517,9.32766,2.3663,7.70671,-2.07767,35.5691,7,0,0,0
0,1405778994,914709,24.3319,16.3415,-39.282,49.0118,-8.70874,-0.811357,3.29616,9.34693,2.12545,7.01825,-1.82512,35.5952,7,0,0,0
0,1405778995,915711,24.4385,15.9166,-39.1031,48.7815,-8.73997,-0.790336,3.33314,9.3873,1.63835,7.33051,-2.51908,35.5711,7,0,0,0
0,1405778996,916712,24.5114,16.2027,-39.372,49.1274,-8.69757,-0.760069,3.25403,9.31741,0.569026,7.22929,-2.44593,35.6612,7,0,0,0
0,1405778997,917719,24.8143,15.6311,-39.4555,49.1612,-8.70418,-0.771799,3.24519,9.32146,1.292,6.77481,-1.7022,35.5783,7,0,0,0
0,1405778998,918720,24.7235,15.7777,-39.6229,49.2967,-8.72606,-0.780563,3.22705,9.33634,2.59074,5.84835,-3.23023,35.5605,7,0,0,0
0,1405778999,919728,24.6204,15.9449,-39.1488,48.9186,-8.68273,-0.77888,3.22773,9.29595,0.698609,7.23987,-2.0155,35.5778,7,0,0,0
0,1405779000,920734,24.3088,16.377,-39.4359,49.1356,-8.66948,-0.801337,3.23635,9.28849,1.2925,8.35601,-2.25162,35.6899,8,0,0,0
0,1405779001,921735,24.613,16.2551,-39.3457,49.1743,-8.69184,-0.823186,3.26638,9.32175,1.34274,7.62026,-1.49845,35.6001,8,0,0,0
0,1405779002,922739,24.7447,16.0424,-39.1623,49.024,-8.6872,-0.805391,3.23689,9.30557,1.57267,7.50283,-3.55582,35.6018,8,0,0,0
0,1405779003,923742,24.3799,16.1798,-39.563,49.2077,-8.67373,-0.801608,3.27087,9.30456,1.88252,8.07165,-1.66185,35.6172,7,0,0,0
0,1405779004,924752,24.3813,16.1728,-39.3511,49.0358,-8.71049,-0.80404,3.25019,9.33182,0.696013,8.11859,-1.28598,35.5915,7,0,0,0
0,1405779005,925760,24.5062,16.4497,-39.2532,49.1117,-8.7051,-0.80184,3.28868,9.34008,0.722421,6.54642,-1.98551,35.5982,7,0,0,0
0,1405779006,926764,24.5486,16.0716,-39.3071,49.0508,-8.68786,-0.758947,3.25761,9.30951,1.67026,7.09528,-2.99563,35.6272,7,0,0,0
0,1405779007,927769,24.4623,16.1792,-39.4807,49.1823,-8.723,-0.816305,3.25181,9.34512,2.4491,6.58171,-1.77349,35.6609,6,0,0,0
0,1405779008,928772,24.5484,16.5222,-39.5467,49.3918,-8.71516,-0.771507,3.26436,9.33838,2.45172,7.90507,-2.06624,35.6098,7,0,0,0
0,1405779009,929776,24.8523,16.0753,-39.2932,49.1936,-8.69688,-0.812222,3.23036,9.31293,1.6067,7.62006,-2.53413,35.681,8,0,0,0
0,1405779010,930783,24.6336,16.3135,-39.2901,49.1595,-8.69678,-0.815348,3.27767,9.32962,2.06267,7.36577,-2.53963,35.6882,7,0,0,0
0,1405779011,931788,24.3804,16.2573,-38.9951,48.7783,-8.69854,-0.715935,3.26439,9.31844,1.94065,7.81796,-2.40542,35.6644,7,0,0,0
0,1405779012,932792,24.5115,16.6671,-39.164,49.1165,-8.72619,-0.867335,3.26671,9.35789,2.57879,7.78499,-2.88168,35.6043,7,0,0,0
0,1405779013,933799,24.5642,16.3107,-39.4069,49.2173,-8.70278,-0.774273,3.26939,9.32881,-0.099748,7.66617,-2.12703,35.722,7,0,0,0
0,1405779014,934802,24.5275,16.3288,-39.3219,49.137,-8.70634,-0.799607,3.23967,9.3239,1.19145,6.58189,-3.14177,35.6607,7,0,0,0
0,1405779015,935808,24.3426,16.3908,-39.5244,49.228,-8.71308,-0.810988,3.25872,9.33781,1.85156,7.89674,-2.21211,35.7414,7,0,0,0
0,1405779016,936817,24.3712,16.2056,-39.0535,48.8032,-8.71591,-0.815508,3.29463,9.35343,1.39983,6.52734,-2.83904,35.7267,8,0,0,0
