0,1405087335,utime,,bx(uT),by(uT),bz(uT),,B(uT),ax,,,,ay,,az,,,,,A,,,,,gx,,,gy,,,,gz,,,T(C),rate,,track,tilt,roll
0,1405087335,mins,,-1000,-1000,-1000,,,,,0,,,,-2000,-2000,-2000,,0,,,-2000,,-2000,-2000,-2000,,0,,0,,-180,-180
0,1405087335,maxs,,,1000,,1000,,1000,,,,1000,,,2000,,2000,,2000,2000,,2000,,,2000,,2000,,2000,,37000,360,180,180
0,1405087335,attr,,,,,F,,,,,F,,,,,F,,,,,,F,,,,,,F,,,,,F,,,,F,,,,,F,,,,,F,,,,,,F,,,,,F,,,,,F,,,,,I,F,F,F
0,1405087336,2275,-0.0917431,3.97554,2.21713,4.5529,-1.42531,0.0923813,0.600479,1.54939,0.0927536,1.82029,0.556522,2.27333,0,0,0,0
0,1405087337,3281,-0.230907,23.7951,12.3796,26.8238,-8.38946,-0.638064,3.81468,9.23807,1.05953,5.40053,-0.869377,22.7185,10,0,0,0
0,1405087338,4282,-0.139294,23.9351,13.0965,27.2842,-8.43907,-0.19248,3.63344,9.19004,2.25696,5.91038,-2.57737,22.6757,11,0,0,0
0,1405087339,5287,-0.28063,23.9639,12.9639,27.2472,-8.5516,-0.903255,3.3918,9.24391,2.57029,5.8105,-1.81158,22.7636,7,0,0,0
0,1405087340,6295,0.263569,24.0302,12.9215,27.2852,-8.34338,-0.592659,4.02473,9.28234,1.18142,6.71471,-0.0131113,22.7348,11,0,0,0
0,1405087341,7296,0.132142,23.9274,12.8374,27.1539,-8.53868,-0.591526,3.60917,9.28898,2.38437,6.47392,-1.16596,22.7622,10,0,0,0
0,1405087342,8299,-0.0437667,23.8394,12.4694,26.9037,-8.53969,-0.562879,3.60442,9.28628,1.87884,5.83922,-1.15562,22.7041,11,0,0,0
0,1405087343,9300,-0.0190192,24.2949,12.46,27.3037,-8.53984,-0.559594,3.63045,9.29635,2.57245,5.5075,-1.83694,22.8521,11,0,0,0
0,1405087346,12066,0.0130763,23.941,12.8826,27.187,-8.53886,-0.59398,3.63205,9.29821,1.1502,5.61541,-1.22552,22.9131,3,0,0,0
0,1405087347,13083,-0.0349746,23.9569,12.9068,27.2125,-8.52783,-0.626957,3.5546,9.26024,1.64256,5.34038,-1.12562,22.9129,1,0,0,0
0,1405087348,14093,-0.0425605,24.4877,12.8674,27.6626,-8.51525,-0.621226,3.65377,9.28684,0.727656,5.38147,-2.50959,23.0392,5,0,0,0
0,1405087349,15094,-0.152017,23.9818,12.6025,27.092,-8.51795,-0.620112,3.65991,9.29166,1.11888,5.79456,-1.21817,23.1726,6,0,0,0
0,1405087350,16097,-0.223861,23.8733,12.5533,26.9735,-8.52587,-0.581315,3.64306,9.28979,0.808866,7.0333,-0.595942,23.1587,7,0,0,0
0,1405087351,17105,-0.194395,23.7828,12.6992,26.9617,-8.52,-0.581579,3.65393,9.28869,3.5349,5.40774,-1.77679,23.1251,6,0,0,0
0,1405087352,18114,0.113201,24.3101,12.7582,27.4548,-8.56775,-0.624574,3.62641,9.32455,2.7825,5.4298,-1.00408,23.3477,7,0,0,0
0,1405087353,19119,-0.0126916,24.3456,12.6878,27.4534,-8.63008,-0.761601,3.73285,9.43359,0.715602,5.59225,-1.1601,23.3208,7,0,0,0
0,1405087354,20127,0.286981,24.3726,12.5419,27.4118,-8.59964,-0.341988,3.47557,9.28172,1.32348,5.8477,-2.21127,23.4844,7,0,0,0
0,1405087355,21134,0.0806812,24.1035,12.734,27.2605,-8.48934,-0.569584,3.71193,9.28287,0.704513,5.72712,-1.93915,23.473,7,0,0,0
0,1405087356,22138,0.21384,24.3242,12.1909,27.209,-8.52906,-0.953405,3.89753,9.42574,1.34788,3.70611,-1.70347,23.4506,6,0,0,0
0,1405087357,23148,0.191166,24.4513,12.4764,27.4511,-8.43309,-0.570288,3.82606,9.27799,2.15795,6.67107,0.16901,23.4829,7,0,0,0
0,1405087358,24149,0.281745,24.842,12.6817,27.8932,-8.52759,-0.563343,3.65799,9.29613,0.945569,4.83073,-0.574182,23.6874,6,0,0,0
0,1405087359,25158,-0.002361,24.5363,12.4802,27.5279,-8.50089,-0.602316,3.67883,9.28233,1.18953,5.60794,-0.88963,23.6889,7,0,0,0
0,1405087360,26161,0.490855,24.6087,12.4082,27.5643,-8.42124,-0.586204,3.80429,9.25924,2.21072,5.70528,-1.60753,23.6098,7,0,0,0
0,1405087361,27163,0.34101,24.3911,12.2529,27.2979,-8.51351,-0.596825,3.6769,9.29277,2.17105,5.56794,-1.46649,23.6742,6,0,0,0
0,1405087362,28164,0.48803,24.5413,12.6161,27.5985,-8.53022,-0.53019,3.62946,9.28541,0.576275,5.75946,-0.531384,23.8323,7,0,0,0
0,1405087363,29173,0.422396,24.6195,12.4876,27.6087,-8.51563,-0.591141,3.66923,9.29132,2.13099,5.84491,-2.38971,23.8588,7,0,0,0
0,1405087364,30180,0.108561,24.383,12.8005,27.539,-8.504,-0.531235,3.67822,9.2806,3.08837,5.86022,-1.32363,23.7914,6,0,0,0
0,1405087365,31187,0.246596,24.4894,12.7657,27.618,-8.50626,-0.591867,3.64368,9.27271,1.30096,6.70524,-2.30503,23.8121,6,0,0,0
0,1405087366,32195,0.118614,24.1979,12.5434,27.256,-8.51567,-0.602203,3.62782,9.27579,-0.403308,5.50211,-1.45311,23.8155,6,0,0,0
0,1405087367,33198,0.426334,24.5441,12.2809,27.4484,-8.49894,-0.590291,3.64376,9.26593,-0.459073,6.30632,-0.509723,23.9582,7,0,0,0
0,1405087368,34208,0.140342,24.4613,12.9475,27.6769,-8.49659,-0.598482,3.65693,9.26949,2.26079,5.63787,-1.74919,23.8892,7,0,0,0
0,1405087369,35215,0.519955,24.7713,12.7905,27.8834,-8.50788,-0.612492,3.66641,9.28449,0.339106,4.9304,-1.12766,23.9327,8,0,0,0
0,1405087370,36218,0.357356,24.4601,12.6079,27.5206,-8.50209,-0.559113,3.67547,9.2794,1.12397,5.72942,-1.0856,24.0267,7,0,0,0
0,1405087371,37919,-0.0697251,24.3539,12.4159,27.3363,-8.48687,-0.597439,3.7103,9.28171,1.52267,5.91999,-0.695981,24.0628,3,0,0,0
0,1405087372,38926,0.123284,24.5889,12.3763,27.5282,-8.51987,-0.599609,3.62442,9.27815,3.34078,6.87394,-0.657862,24.1234,7,0,0,0
0,1405087373,39934,0.218096,24.3177,12.2647,27.2363,-8.47715,-0.635839,3.67881,9.26283,2.67795,5.88473,-1.54728,24.1106,3,0,0,0
0,1405087374,40935,0.0432087,24.3493,12.524,27.3814,-8.50378,-0.573179,3.66081,9.27601,1.85088,6.31851,-0.960483,24.1318,5,0,0,0
0,1405087375,41937,0.226999,24.4149,12.3522,27.3626,-8.49666,-0.40002,3.67362,9.26546,3.96304,7.14155,-2.81558,24.28,7,0,0,0
0,1405087376,42949,0.315735,24.1833,12.388,27.1734,-8.55957,-0.574862,3.60012,9.30363,1.96585,6.85565,-1.05839,24.218,6,0,0,0
0,1405087377,43957,0.165002,24.0574,12.6991,27.2039,-8.50137,-0.603482,3.68213,9.28416,3.44973,5.04877,-2.18933,24.2599,5,0,0,0
0,1405087378,44958,0.063525,24.5115,12.598,27.5595,-8.55354,-0.573917,3.59586,9.29638,2.49182,4.90718,-1.27777,24.3584,7,0,0,0
0,1405087379,45962,-0.00928106,24.3349,12.4617,27.3402,-8.51011,-0.571642,3.62712,9.26848,1.05276,6.39973,-0.436254,24.3488,5,0,0,0
0,1405087380,46964,0.181867,24.3464,12.6048,27.4164,-8.51805,-0.600664,3.65364,9.288,2.47184,6.41818,-1.71967,24.2715,7,0,0,0
0,1405087381,47974,0.017022,24.18,12.5881,27.2605,-8.50794,-0.617617,3.66606,9.28475,2.70412,6.25219,-1.6444,24.3149,6,0,0,0
0,1405087382,48976,0.0617063,24.3381,12.4702,27.3469,-8.52,-0.612351,3.61424,9.27513,0.677594,5.35969,0.113595,24.4687,7,0,0,0
0,1405087383,49981,0.199926,24.1537,12.6575,27.27,-8.51711,-0.61357,3.69518,9.3044,0.467154,6.96453,-0.807607,24.4898,6,0,0,0
0,1405087384,50987,0.150096,24.0017,12.8598,27.2301,-8.47496,-0.611862,3.79741,9.30697,2.46107,6.00156,-1.03321,24.39,6,0,0,0
0,1405087385,51995,0.0687564,24.1015,12.4582,27.131,-8.49848,-0.573987,3.72,9.29473,1.60366,6.68731,-2.25366,24.5909,6,0,0,0
0,1405087387,53000,0.0676025,24.0939,12.5236,27.1544,-8.53012,-0.576217,3.65259,9.29712,3.02173,5.65184,-0.963412,24.5805,6,0,0,0
0,1405087388,54009,-0.244762,24.2204,12.4731,27.2445,-8.49299,-0.602392,3.67648,9.27417,0.716339,6.08454,-1.73783,24.6321,6,0,0,0
0,1405087389,55019,0.114155,24.2657,12.6964,27.3868,-8.49836,-0.610141,3.64538,9.26732,2.94415,5.77835,-1.24778,24.613,7,0,0,0
0,1405087390,56023,-0.0268956,24.5285,12.7114,27.6266,-8.5251,-0.598465,3.64582,9.29125,2.85102,4.86429,-2.02186,24.6875,6,0,0,0
0,1405087391,57025,0.142266,24.3379,12.684,27.4451,-8.51025,-0.605371,3.6657,9.28591,2.70864,5.35096,-1.74178,24.6811,6,0,0,0
0,1405087392,58485,0.0899685,24.1718,12.8306,27.3662,-8.5191,-0.596065,3.67331,9.29643,2.3134,6.32936,-1.52266,24.8085,7,0,0,0
0,1405087393,59488,0.221157,24.3248,12.659,27.4225,-8.4983,-0.591222,3.68065,9.27997,1.38338,6.26086,-1.11942,24.7597,6,0,0,0
0,1405087394,60495,0.0947218,24.4784,12.5324,27.5002,-8.49253,-0.610448,3.69469,9.28152,1.06907,5.81175,-0.292514,24.913,7,0,0,0
0,1405087395,61501,0.365737,24.1671,12.7582,27.3304,-8.50925,-0.591605,3.7005,9.2979,0.409744,6.69263,-1.65588,24.9591,6,0,0,0
0,1405087396,62507,-0.143618,24.1804,12.4799,27.2114,-8.5013,-0.621782,3.68335,9.28579,1.91566,4.98574,-1.12342,24.8333,7,0,0,0
0,1405087397,63513,0.0825725,24.532,12.9072,27.7204,-8.48913,-0.61356,3.68034,9.2729,2.41641,6.3666,-1.58811,25.035,6,0,0,0
0,1405087398,64520,0.168474,24.3565,12.5287,27.3905,-8.53791,-0.595692,3.62143,9.2933,1.29166,6.09598,-0.96158,24.9875,6,0,0,0
0,1405087399,65529,0.0248463,23.9805,12.5983,27.0884,-8.50724,-0.60484,3.6487,9.27642,0.707068,6.84152,-1.4838,25.0301,6,0,0,0
0,1405087400,66538,-0.0543044,24.3078,12.3918,27.2842,-8.5436,-0.625371,3.61176,9.29672,2.1608,6.43461,-0.550644,25.1694,6,0,0,0
0,1405087401,67974,0.210369,24.2009,12.7046,27.3337,-8.50917,-0.588219,3.65956,9.2814,1.66454,6.87638,-1.71203,25.131,2,0,0,0
0,1405087402,68975,-0.0223422,24.076,12.4873,27.1217,-8.52103,-0.575749,3.64957,9.28756,0.854134,6.50064,-1.04364,25.1239,7,0,0,0
0,1405087403,69979,0.0715113,24.347,12.829,27.5202,-8.51403,-0.588225,3.66514,9.28805,2.5221,5.68366,-0.206153,25.1483,7,0,0,0
0,1405087404,70988,0.0836745,24.2731,12.4884,27.2975,-8.51752,-0.577064,3.62091,9.2732,2.40827,5.89763,-0.865108,25.3449,5,0,0,0
0,1405087406,72000,-0.154144,23.523,11.8475,26.3385,-8.51862,-0.585662,3.63093,9.27866,0.42921,6.48711,-1.39724,25.2798,6,0,0,0
0,1405087407,73004,-0.115911,23.6926,11.6982,26.4235,-8.52165,-0.594196,3.63821,9.28483,1.12003,6.1443,-0.124574,25.3899,7,0,0,0
0,1405087408,74013,0.097854,24.235,12.5199,27.2781,-8.50015,-0.587144,3.62617,9.25994,2.84573,6.56971,-1.31538,25.3969,7,0,0,0
0,1405087409,75016,0.957324,24.7824,11.972,27.5392,-8.50946,-0.582184,3.70932,9.30102,1.77426,7.2109,-1.09702,25.4888,8,0,0,0
0,1405087410,76020,0.0333756,24.584,11.6707,27.2136,-8.50427,-0.602305,3.66854,9.28136,2.29567,6.72974,-1.87057,25.4017,7,0,0,0
0,1405087411,77029,-8.6148,22.2454,2.30665,23.9665,-8.51293,-0.560041,3.6696,9.28707,0.665073,7.19436,-1.46933,25.4242,6,0,0,0
0,1405087412,78036,-3.55536,24.086,9.76191,26.2311,-8.52422,-0.609633,3.70169,9.31324,3.34015,6.03621,-0.614357,25.5195,7,0,0,0
0,1405087413,79042,-3.86287,23.7674,9.7428,25.9756,-8.45276,-0.587746,3.65873,9.22935,1.35573,5.6159,-2.19862,25.6083,6,0,0,0
0,1405087414,80047,-3.85536,23.6789,9.82284,25.9238,-8.51394,-0.614599,3.67793,9.29473,2.22098,6.23548,-0.685538,25.6091,7,0,0,0
0,1405087415,81050,-3.3129,23.8898,9.62425,25.9677,-8.50331,-0.598919,3.63323,9.26635,1.82003,5.56365,-1.12,25.62,6,0,0,0
0,1405087416,82054,-3.67607,24.3859,10.2217,26.6959,-8.5031,-0.593158,3.68209,9.28506,2.33316,7.09815,-0.870799,25.6337,7,0,0,0
0,1405087417,83057,-3.62884,23.6881,9.72477,25.8625,-8.51312,-0.597443,3.6332,9.27525,0.967903,6.58482,0.486258,25.656,7,0,0,0
0,1405087418,84063,-3.72697,24.226,10.0332,26.485,-8.51936,-0.601139,3.6458,9.28616,1.90281,6.44256,-1.02228,25.712,6,0,0,0
0,1405087419,85069,-3.71933,23.7314,9.70012,25.9057,-8.52437,-0.604757,3.65054,9.29284,3.2947,6.41493,-1.90584,25.676,6,0,0,0
0,1405087420,86074,-3.835,23.3811,9.47123,25.5164,-8.48782,-0.599503,3.65236,9.25971,1.12488,6.71799,-1.26289,25.8,5,0,0,0
0,1405087421,87075,-3.5355,23.9786,9.73843,26.121,-8.53801,-0.581474,3.64646,9.30228,-0.44195,5.23496,-2.09294,25.7566,6,0,0,0
0,1405087422,88737,-3.79566,23.3589,9.70108,25.5764,-8.52107,-0.586627,3.67216,9.29717,2.21754,6.66207,-2.28857,25.7471,7,0,0,0
0,1405087423,89739,-4.10219,23.4072,9.90821,25.7468,-8.50948,-0.593351,3.6568,9.28092,1.27874,6.74867,-1.22973,25.7651,6,0,0,0
0,1405087424,90746,-3.205,23.7108,9.49347,25.741,-8.49964,-0.588167,3.66887,9.27634,1.4407,5.59122,-1.26049,25.8397,7,0,0,0
0,1405087425,91751,-3.43325,23.9747,9.94046,26.1799,-8.52655,-0.566829,3.63314,9.28563,2.7551,6.97153,-0.684607,25.9809,5,0,0,0
0,1405087426,92757,-3.92163,23.9526,10.0117,26.2553,-8.52119,-0.595214,3.65002,9.28911,2.65766,5.78762,-1.28917,25.9584,7,0,0,0
0,1405087427,93762,-3.74736,23.8582,9.91663,26.1074,-8.51288,-0.575573,3.6701,9.28817,1.41172,5.54581,-0.449767,25.9207,6,0,0,0
0,1405087428,94768,-3.76654,23.7004,9.71723,25.8906,-8.50349,-0.603463,3.67836,9.2846,0.894487,6.69593,-0.880692,26.0293,7,0,0,0
0,1405087429,95774,-3.47368,23.7029,9.74985,25.8641,-8.5015,-0.586644,3.66142,9.275,1.27795,6.05173,-0.692815,26.0259,7,0,0,0
0,1405087430,96781,-4.08712,23.8033,9.31655,25.8863,-8.51636,-0.588459,3.65921,9.28787,2.37428,5.25069,-0.525768,26.1675,6,0,0,0
0,1405087431,97786,-4.27012,24.5319,9.91975,26.8039,-8.51981,-0.619133,3.6497,9.28929,1.14234,5.76794,-1.60736,26.1347,5,0,0,0
0,1405087432,98794,-3.76272,24.6601,10.3744,27.0167,-8.50766,-0.608075,3.64691,9.27631,-0.0228462,7.04647,-0.403416,26.2275,6,0,0,0
0,1405087433,99801,-3.95624,24.6082,9.96599,26.8428,-8.49794,-0.597543,3.68027,9.27989,2.55672,5.91001,-2.56183,26.2392,7,0,0,0
0,1405087434,100804,-3.77259,24.8054,10.0533,27.0298,-8.49582,-0.596665,3.67248,9.27481,1.55165,5.94396,-2.53601,26.2121,6,0,0,0
0,1405087435,101808,-4.16993,24.6608,10.2948,27.0468,-8.5171,-0.598016,3.671,9.29381,1.40105,6.01187,-1.18894,26.1784,7,0,0,0
0,1405087436,102809,-4.36558,24.5422,9.9043,26.823,-8.52028,-0.597184,3.65472,9.29025,2.76562,6.57715,-1.48778,26.3598,5,0,0,0
0,1405087437,103814,-3.69696,23.7516,9.7946,25.9565,-8.51333,-0.592395,3.66159,9.28628,1.05033,6.17348,-1.66891,26.2921,7,0,0,0
0,1405087438,104819,-3.13373,24.0569,9.60758,26.0933,-8.52105,-0.583999,3.63256,9.28142,1.67307,6.80438,-1.26711,26.3702,7,0,0,0
0,1405087439,105831,-3.79817,23.9264,9.57318,26.0489,-8.50492,-0.58993,3.64779,9.27298,1.52629,6.96223,-0.342702,26.4782,7,0,0,0
0,1405087440,106838,-3.42052,23.7654,9.74746,25.9135,-8.54141,-0.578056,3.63969,9.30254,1.27149,7.5516,-1.55549,26.5222,6,0,0,0
0,1405087441,107848,-3.89072,24.1549,9.65422,26.3021,-8.48848,-0.620225,3.63173,9.25356,3.45253,7.49669,-2.91436,26.5291,7,0,0,0
0,1405087442,108855,-3.21656,24.4396,9.34945,26.3638,-8.47697,-0.574781,3.69839,9.26647,2.29425,6.35246,-1.49602,26.6925,5,0,0,0
0,1405087443,109858,-3.19461,23.9475,9.31295,25.8924,-8.56224,-0.62089,3.59425,9.30678,2.27794,6.28601,-0.71947,26.6392,6,0,0,0
0,1405087444,110862,-3.90386,23.6729,9.67747,25.8708,-8.49878,-0.606065,3.627,9.26022,2.00792,6.34522,-2.77414,26.6285,6,0,0,0
0,1405087445,111863,-4.07079,23.5784,9.46865,25.7326,-8.52176,-0.609441,3.6436,9.28804,2.7772,5.16144,-0.784847,26.7001,7,0,0,0
0,1405087446,112864,-3.87097,24.0912,10.2026,26.4474,-8.50686,-0.598425,3.64189,9.27298,3.28389,6.72664,-0.758376,26.8246,5,0,0,0
0,1405087447,113872,-3.73878,24.1178,9.29923,26.1174,-8.50514,-0.590676,3.65915,9.2777,1.32066,6.00645,-0.667997,26.7409,7,0,0,0
0,1405087448,114877,-3.41214,23.7321,9.10319,25.6461,-8.50911,-0.598889,3.67018,9.28622,2.17826,5.98104,-2.62106,26.8383,5,0,0,0
0,1405087449,115886,-3.53629,23.8722,9.00689,25.7587,-8.51161,-0.597249,3.62814,9.27188,2.49732,5.74144,-0.930289,26.8073,6,0,0,0
0,1405087450,116887,-3.53777,24.0726,9.33758,26.0614,-8.5222,-0.614652,3.66801,9.29839,0.376179,6.44574,-1.45443,26.7885,6,0,0,0
0,1405087451,117893,-3.82529,23.8607,9.60714,26.005,-8.5123,-0.608235,3.63929,9.27758,1.79224,6.73514,-1.49149,26.872,4,0,0,0
0,1405087452,118895,-3.57642,24.1654,9.73486,26.2969,-8.51466,-0.621007,3.63741,9.27986,1.92312,7.2746,-1.58947,26.9072,7,0,0,0
0,1405087453,119901,-3.68759,24.1344,9.09152,26.0523,-8.48341,-0.615279,3.68541,9.2698,1.13061,6.35171,-0.954783,26.9306,7,0,0,0
0,1405087454,120908,-3.24394,23.936,9.60839,25.9957,-8.49587,-0.582019,3.6571,9.26784,1.09199,7.57759,-1.84203,27.009,6,0,0,0
0,1405087455,121914,-3.75522,24.0217,9.39347,26.0649,-8.5061,-0.628905,3.62617,9.26814,2.6553,7.11553,-1.40066,26.949,7,0,0,0
0,1405087456,122918,-3.27609,23.9251,9.39017,25.9098,-8.49853,-0.628872,3.62838,9.26205,2.4455,5.56011,-1.20169,27.0715,5,0,0,0
0,1405087457,123929,-3.41428,23.8676,9.65443,25.9716,-8.51118,-0.616351,3.68394,9.2947,0.589885,6.65618,-0.234387,27.0256,7,0,0,0
0,1405087458,124939,-3.09203,24.119,9.36671,26.0581,-8.4808,-0.618693,3.67522,9.26359,1.33216,6.01353,-1.78573,27.0473,6,0,0,0
0,1405087459,125946,-3.51191,23.8299,9.96514,26.0673,-8.51682,-0.597659,3.64479,9.28321,1.39113,6.61031,-0.988506,27.0939,6,0,0,0
0,1405087460,126953,-3.37036,24.0777,9.68473,26.1704,-8.51658,-0.599701,3.64552,9.2834,1.18651,5.71898,-0.964151,27.0825,7,0,0,0
0,1405087461,127955,-3.43235,23.9456,9.75928,26.0848,-8.50201,-0.633702,3.65385,9.27558,2.55686,7.22278,-0.961884,27.097,6,0,0,0
0,1405087462,128957,-3.16694,24.0729,9.90586,26.2232,-8.49896,-0.588252,3.66743,9.27516,2.10509,7.02149,-1.36672,27.1448,7,0,0,0
0,1405087463,129967,-3.46021,23.858,9.5911,25.9455,-8.51579,-0.553598,3.62161,9.27045,1.04156,6.76003,-1.92328,27.1604,7,0,0,0
0,1405087464,130970,-3.46327,23.989,9.43364,26.0089,-8.51383,-0.602923,3.61304,9.26838,0.974731,6.71656,-1.48169,27.1544,7,0,0,0
0,1405087465,131975,-3.40281,24.0925,9.6567,26.1779,-8.5021,-0.609795,3.67477,9.28232,0.606643,6.66913,-1.90231,27.2117,7,0,0,0
0,1405087466,132979,-3.36764,23.8181,9.81996,25.9822,-8.48893,-0.582729,3.62277,9.24803,0.625187,7.2516,-1.39363,27.3503,6,0,0,0
0,1405087467,133982,-3.24903,24.1352,9.71045,26.2174,-8.53061,-0.594882,3.65996,9.30164,0.406328,6.37428,-1.58248,27.306,6,0,0,0
0,1405087468,134994,-3.14864,24.3121,9.66409,26.3513,-8.52403,-0.606428,3.63865,9.28798,2.62305,5.52256,-1.05281,27.3231,6,0,0,0
0,1405087469,135996,-3.4192,23.7615,9.50861,25.8208,-8.50099,-0.594716,3.65767,9.27357,3.55753,5.10708,-1.74197,27.358,6,0,0,0
0,1405087471,137007,-3.34312,23.9904,9.61714,26.0616,-8.51638,-0.612276,3.60465,9.26807,1.0144,5.90346,-0.988038,27.4584,8,0,0,0
0,1405087472,138010,-3.29814,23.847,9.62175,25.9255,-8.4925,-0.602582,3.66429,9.26891,0.271592,6.89466,-0.570984,27.4172,6,0,0,0
0,1405087473,139014,-3.76362,24.191,9.60168,26.2976,-8.55268,-0.57149,3.62156,9.3054,1.31905,5.85454,-0.575619,27.4048,7,0,0,0
0,1405087474,140026,-3.44589,23.9108,9.64455,26.0119,-8.52468,-0.589274,3.60394,9.27393,2.03454,6.49922,-0.711748,27.474,6,0,0,0
0,1405087475,141035,-3.66055,23.889,9.5935,26.0023,-8.50795,-0.596437,3.62355,9.26667,2.92538,6.70225,-1.14883,27.5804,7,0,0,0
0,1405087476,142043,-3.5318,24.0208,9.93569,26.2334,-8.51441,-0.607353,3.6524,9.28462,2.0048,6.6541,-1.18886,27.6012,6,0,0,0
0,1405087477,143044,-4.10949,24.1351,9.69821,26.3334,-8.5133,-0.594563,3.63976,9.27781,1.23524,7.00153,-2.13311,27.6845,6,0,0,0
0,1405087478,144056,-3.99943,24.0729,9.41631,26.1566,-8.47554,-0.60463,3.69322,9.265,1.74181,6.24315,-1.74829,27.706,6,0,0,0
0,1405087480,146041,-3.70722,23.9969,9.52721,26.0838,-8.51303,-0.609527,3.65656,9.28512,3.97627,6.28402,-0.289294,27.8103,5,0,0,0
0,1405087481,147048,-3.70204,24.2734,9.64234,26.3795,-8.50658,-0.613762,3.64619,9.27541,0.597244,7.39199,-1.80701,27.8273,5,0,0,0
0,1405087482,148060,-4.07873,23.9784,9.37533,26.0671,-8.53975,-0.606729,3.61322,9.29251,1.23288,6.61408,-1.24804,27.879,7,0,0,0
0,1405087483,149064,-3.77808,24.399,9.59519,26.4888,-8.51265,-0.60147,3.63977,9.27766,1.67914,7.83947,-1.65983,27.9304,6,0,0,0
0,1405087484,150065,-4.19093,23.6908,9.61172,25.9076,-8.52739,-0.596124,3.64228,9.29182,-0.0161745,7.14257,-0.90165,28.0737,6,0,0,0
0,1405087485,151067,-3.77719,24.0157,9.83488,26.2249,-8.5301,-0.586951,3.6482,9.29604,0.95073,5.34361,-1.11659,28.0668,6,0,0,0
0,1405087486,152075,-4.02283,24.0906,9.56486,26.2302,-8.51186,-0.595809,3.65425,9.28225,0.165014,5.80192,-1.05789,28.0768,6,0,0,0
0,1405087487,153078,-3.69729,23.863,9.80123,26.0611,-8.52079,-0.600726,3.6532,9.29035,1.92343,5.79117,-1.2492,28.1749,5,0,0,0
0,1405087488,154080,-3.59809,24.0207,9.94611,26.2462,-8.5071,-0.602572,3.62834,9.26815,1.55359,7.17006,-1.4579,28.209,6,0,0,0
0,1405087489,155084,-3.36677,24.0065,10.0614,26.2465,-8.51278,-0.609573,3.65806,9.2855,1.26834,8.00424,-2.36527,28.0938,7,0,0,0
0,1405087490,156086,-3.66635,24.2026,9.91651,26.4111,-8.50001,-0.609185,3.65676,9.27325,0.790453,5.72045,-1.08555,28.1455,7,0,0,0
0,1405087491,157094,-3.78533,23.9843,10.1084,26.3012,-8.51425,-0.642154,3.65233,9.28678,0.567797,5.93356,-1.44397,28.099,6,0,0,0
0,1405087492,158104,-3.79304,23.9674,10.3666,26.3873,-8.50108,-0.590695,3.68969,9.28607,1.51964,6.40622,-1.24739,28.2548,6,0,0,0
0,1405087493,159107,-3.95586,23.9124,10.5597,26.4378,-8.48662,-0.609037,3.65389,9.25983,2.69782,5.80885,-1.32345,28.1832,7,0,0,0
0,1405087494,160112,-3.74612,24.133,10.2515,26.4864,-8.51482,-0.595641,3.6753,9.29327,2.5782,7.12501,-1.33675,28.3688,7,0,0,0
0,1405087495,161117,-3.55084,23.8657,10.2721,26.224,-8.52727,-0.570233,3.66219,9.29791,1.51444,6.03079,-1.41822,28.4193,6,0,0,0
0,1405087496,162120,-3.56713,23.8894,10.2261,26.2298,-8.5137,-0.607547,3.66316,9.28822,1.75557,7.28383,-2.09795,28.3587,7,0,0,0
0,1405087497,163136,-3.6496,23.9937,9.91478,26.2168,-8.5135,-0.621835,3.66114,9.28818,1.13115,6.16566,-1.36437,28.4143,4,0,0,0
0,1405087498,164138,-3.29976,23.9075,9.97859,26.1157,-8.49785,-0.601493,3.61354,9.2538,0.593574,7.35784,-2.01537,28.3774,6,0,0,0
0,1405087499,165144,-3.47062,24.0961,10.068,26.3445,-8.508,-0.601112,3.67592,9.28762,1.66311,5.62133,-1.42949,28.3393,5,0,0,0
0,1405087500,166147,-3.51612,24.2015,10.2712,26.5249,-8.50034,-0.6246,3.70621,9.29419,2.04599,6.95476,-1.20166,28.5043,5,0,0,0
0,1405087501,167160,-3.7166,24.4631,10.4922,26.8764,-8.49559,-0.604547,3.67668,9.27677,0.843407,5.92542,-1.38649,28.5331,7,0,0,0
0,1405087502,168166,-3.83805,23.8968,10.1345,26.2392,-8.4893,-0.573436,3.70948,9.28209,2.37168,7.19455,-1.9164,28.5856,6,0,0,0
0,1405087503,169167,-3.72397,24.1551,10.6573,26.663,-8.54316,-0.584109,3.63071,9.30101,2.45334,6.85474,-0.770068,28.5974,3,0,0,0
0,1405087504,170169,-3.69529,23.8554,10.2432,26.2233,-8.52479,-0.610793,3.62271,9.28273,2.01253,7.17124,-0.956093,28.53,10,0,0,0
0,1405087505,171173,-3.63391,24.2314,10.1772,26.5319,-8.51685,-0.610177,3.5856,9.26097,1.57409,6.73929,-1.09775,28.5398,9,0,0,0
0,1405087506,172175,-3.59535,24.3004,10.4673,26.702,-8.46635,-0.666178,3.6758,9.25389,2.24413,6.23312,-1.97221,28.5512,10,0,0,0
0,1405087507,173183,-3.6131,24.199,10.3565,26.5688,-8.49724,-0.60797,3.68286,9.28096,2.36306,5.89764,-1.22196,28.5742,10,0,0,0
0,1405087508,174189,-3.68853,24.0382,10.4649,26.4756,-8.50155,-0.595739,3.64728,9.27005,1.99813,6.70604,-0.147423,28.5151,10,0,0,0
0,1405087509,175194,-3.6876,24.1794,9.95077,26.4057,-8.51383,-0.606063,3.66588,9.28931,2.27445,6.00894,-1.11028,28.613,10,0,0,0
0,1405087510,176196,-3.8541,23.9901,9.86073,26.2224,-8.50705,-0.582649,3.65018,9.27541,2.53009,7.34741,-0.984178,28.5537,11,0,0,0
0,1405087511,177200,-4.16979,24.5286,9.85013,26.7593,-8.5419,-0.604172,3.64691,9.30747,2.09587,6.14699,-1.97692,28.5592,11,0,0,0
0,1405087512,178201,-3.83242,24.1679,9.49917,26.249,-8.50811,-0.595823,3.63233,9.27021,1.38111,7.24794,-1.03684,28.5421,11,0,0,0
0,1405087513,179203,-3.88381,24.2408,9.55992,26.3456,-8.52189,-0.606078,3.64888,9.29001,0.894142,7.60146,-0.72143,28.6546,11,0,0,0
0,1405087514,180208,-4.08461,24.2203,9.89973,26.4823,-8.52903,-0.602743,3.64169,9.29352,1.09482,6.96985,-0.982656,28.6352,10,0,0,0
0,1405087515,181214,-3.84133,24.4638,9.78131,26.6253,-8.53522,-0.602116,3.65985,9.30629,1.57202,7.49593,-2.81743,28.5331,10,0,0,0
0,1405087516,182215,-4.12412,24.275,9.77006,26.4904,-8.49125,-0.588822,3.65211,9.26207,1.77602,6.88333,0.0482219,28.6514,10,0,0,0
0,1405087517,183217,-3.85482,24.1068,9.16611,26.0771,-8.51631,-0.590167,3.63366,9.27789,1.94666,7.18316,-2.69603,28.7514,10,0,0,0
0,1405087518,184219,-3.85658,24.3976,9.52321,26.4728,-8.52747,-0.602133,3.65853,9.29866,2.38065,7.04381,-1.3767,28.7172,10,0,0,0
0,1405087519,185220,-3.86739,24.583,9.54446,26.6529,-8.52378,-0.59407,3.61339,9.27708,0.690879,7.26705,-2.67549,28.768,11,0,0,0
0,1405087520,186225,-4.19821,24.464,9.76265,26.6725,-8.49982,-0.591072,3.60181,9.25037,1.17295,6.98303,-2.72577,28.7975,10,0,0,0
0,1405087521,187230,-4.24616,24.2101,9.42816,26.3258,-8.50093,-0.598872,3.64467,9.26866,1.22967,7.06663,-2.3943,28.9195,10,0,0,0
0,1405087522,188234,-4.32589,24.566,9.91668,26.8429,-8.48976,-0.590648,3.6691,9.26753,1.9525,6.71284,-1.49252,28.9552,10,0,0,0
0,1405087523,189242,-4.34614,24.4851,9.85765,26.7504,-8.49769,-0.605381,3.62129,9.25694,1.82311,7.59795,-1.27736,28.9507,10,0,0,0
0,1405087524,190248,-3.86611,24.1818,9.45419,26.2505,-8.51308,-0.578886,3.63659,9.27537,0.94676,6.82835,-0.967761,29.1161,10,0,0,0
0,1405087525,191251,-3.99413,24.4578,9.7682,26.6375,-8.52769,-0.582305,3.62807,9.28566,1.59148,6.76355,-1.73802,29.0558,10,0,0,0
0,1405087526,192255,-3.97338,24.397,9.46356,26.4681,-8.51272,-0.60844,3.6472,9.28109,1.51773,7.46416,-1.49231,29.0082,10,0,0,0
0,1405087527,193257,-3.95784,24.1945,9.84497,26.4189,-8.52584,-0.585684,3.67098,9.30103,0.739775,6.0604,-1.51916,29.1942,10,0,0,0
0,1405087528,194258,-4.28832,24.0584,9.42786,26.1931,-8.50498,-0.60155,3.69431,9.29217,1.68041,6.98663,-1.74766,29.1397,10,0,0,0
0,1405087529,195266,-3.78185,24.7241,9.15585,26.6348,-8.5149,-0.587936,3.65156,9.28349,1.8986,6.16354,-1.62212,29.178,10,0,0,0
0,1405087530,196269,-3.82575,24.18,9.62853,26.3062,-8.49592,-0.62038,3.63207,9.26053,2.29,6.42641,-2.86098,29.1678,10,0,0,0
0,1405087531,197272,-3.66708,24.2678,9.47087,26.3072,-8.52251,-0.593754,3.63959,9.28613,1.80923,6.83672,-1.8606,29.2495,10,0,0,0
0,1405087532,198274,-4.23072,24.0687,9.62255,26.2639,-8.51737,-0.615147,3.64908,9.28654,1.20965,5.71481,-1.23297,29.2683,9,0,0,0
0,1405087533,199278,-3.94533,24.1274,9.69028,26.2982,-8.51003,-0.614903,3.64714,9.27903,1.60824,7.44316,-2.35931,29.3302,11,0,0,0
0,1405087534,200281,-4.18002,24.2873,9.51258,26.4166,-8.50987,-0.596355,3.60289,9.26037,1.0044,6.3487,-0.715333,29.2466,11,0,0,0
0,1405087535,201284,-3.93931,24.3904,9.43029,26.445,-8.49317,-0.584324,3.65819,9.26594,2.60056,6.65135,-1.37921,29.3131,11,0,0,0
0,1405087536,202289,-3.83594,24.1805,9.50392,26.2629,-8.51559,-0.597847,3.68861,9.29938,1.38781,6.92632,-2.4561,29.394,11,0,0,0
0,1405087537,203293,-3.89614,24.0561,9.65674,26.2131,-8.51529,-0.609436,3.64922,9.28431,1.37743,6.92829,-1.7361,29.359,11,0,0,0
0,1405087538,204298,-4.41881,24.3637,9.72696,26.6031,-8.51519,-0.600558,3.59315,9.26175,1.78635,7.26702,-2.52352,29.4311,11,0,0,0
0,1405087539,205299,-3.95487,24.0265,9.58453,26.1682,-8.51043,-0.590854,3.68779,9.29389,1.70958,8.10031,-1.98461,29.5355,11,0,0,0
0,1405087540,206302,-4.24533,24.3555,9.96064,26.6538,-8.51697,-0.579035,3.66223,9.28903,1.01635,7.57252,-1.75226,29.5714,10,0,0,0
0,1405087541,207306,-3.87879,24.1568,9.41935,26.2168,-8.50192,-0.61232,3.68327,9.28569,2.08002,7.04386,-1.82676,29.4607,10,0,0,0
0,1405087542,208311,-3.96381,24.4382,9.35887,26.4674,-8.51691,-0.598498,3.6392,9.28115,2.28592,6.91281,-1.92881,29.6325,10,0,0,0
0,1405087543,209316,-4.09094,24.3037,9.49289,26.4106,-8.53628,-0.597654,3.68085,9.31525,1.26182,7.52139,-2.56384,29.5688,11,0,0,0
0,1405087544,210323,-4.00171,24.1499,9.64669,26.3114,-8.52191,-0.609993,3.66176,9.29535,1.28979,6.87909,-2.88069,29.4971,11,0,0,0
0,1405087545,211325,-4.28416,24.3982,9.92426,26.6856,-8.52495,-0.605067,3.63485,9.28725,1.01297,6.55656,-2.44601,29.5622,10,0,0,0
0,1405087546,212328,-3.70604,23.9265,9.68295,26.0762,-8.52602,-0.590756,3.6522,9.29412,2.07911,7.84816,-1.17921,29.6285,10,0,0,0
0,1405087547,213333,-3.93978,24.0362,9.19529,26.0349,-8.52259,-0.593634,3.65178,9.29099,2.33586,6.47291,-0.911343,29.6947,11,0,0,0
0,1405087548,214334,-3.73676,24.0958,9.75271,26.2619,-8.50268,-0.599384,3.66747,9.27929,2.05413,6.0124,-1.88395,29.5883,11,0,0,0
0,1405087549,215339,-4.42811,24.0419,9.44863,26.2087,-8.51332,-0.591905,3.65008,9.2817,1.745,5.96274,-1.51579,29.7567,8,0,0,0
0,1405087550,216343,-3.81921,24.8412,9.93765,27.0264,-8.49182,-0.591203,3.64761,9.26097,1.87095,6.71484,-1.86119,29.7671,10,0,0,0
0,1405087551,217350,-3.95133,24.4662,9.83275,26.6626,-8.49789,-0.598605,3.67075,9.27614,1.15353,6.5744,-1.60674,29.7603,9,0,0,0
0,1405087552,218358,-4.22652,24.2329,9.49194,26.3665,-8.51682,-0.610858,3.62654,9.27692,1.91243,7.01613,-1.31456,29.7174,8,0,0,0
0,1405087553,219359,-4.39817,24.0289,9.64521,26.2633,-8.55265,-0.595643,3.6241,9.30788,2.86155,5.72392,-1.06987,29.6817,12,0,0,0
0,1405087554,220361,-4.04781,23.8761,9.79779,26.1237,-8.51272,-0.596117,3.6042,9.26348,2.41853,6.96041,-1.48508,29.8084,13,0,0,0
0,1405087555,221363,-4.2697,24.433,9.39392,26.5226,-8.5144,-0.60442,3.61453,9.26958,2.01169,7.72638,-1.26372,29.6981,11,0,0,0
0,1405087556,222367,-4.26741,24.4649,9.53696,26.6026,-8.5343,-0.610584,3.64293,9.29935,2.14334,7.30942,-0.980082,29.8582,10,0,0,0
0,1405087557,223368,-3.89261,24.1879,9.24818,26.1866,-8.48685,-0.593181,3.6294,9.24938,1.02767,5.98267,-2.67668,29.8014,10,0,0,0
0,1405087558,224372,-3.92401,24.0015,9.3414,26.0525,-8.51131,-0.573741,3.69433,9.29622,1.26087,6.84582,-2.52721,29.8435,10,0,0,0
0,1405087559,225375,-3.96551,24.2398,9.39293,26.2967,-8.49345,-0.588894,3.6952,9.28116,2.55633,7.9077,-0.608902,29.9222,10,0,0,0
0,1405087560,226381,-4.21527,24.2526,9.51956,26.3928,-8.53272,-0.578698,3.62343,9.28824,0.932683,6.09829,-1.3837,29.9411,10,0,0,0
0,1405087561,227383,-4.28362,24.3355,9.39777,26.4364,-8.5007,-0.597137,3.60916,9.25443,2.26357,7.25029,-2.45914,29.9157,10,0,0,0
0,1405087562,228393,-3.88215,24.1694,9.78991,26.3642,-8.52574,-0.614385,3.67689,9.30512,2.79283,6.72132,-0.608705,29.9724,11,0,0,0
0,1405087563,229394,-3.8619,24.1475,9.23576,26.1403,-8.51743,-0.571503,3.59146,9.26131,1.21905,6.67652,-1.34821,29.9142,10,0,0,0
0,1405087564,230396,-3.81042,23.8645,8.9703,25.7778,-8.48687,-0.559226,3.52836,9.2081,3.14488,10.6209,-0.436321,29.9333,10,0,0,0
0,1405087565,231401,-4.09862,24.3096,9.3846,26.3785,-8.62115,-0.443341,3.55869,9.3373,1.37853,6.76911,-2.08108,29.9985,11,0,0,0
0,1405087566,232407,-3.62125,24.1869,9.24123,26.1442,-8.52352,-0.603404,3.6372,9.28675,2.32064,6.69947,-2.17075,30.1066,11,0,0,0
0,1405087567,233412,-3.81751,24.2995,9.61983,26.4117,-8.49858,-0.522791,3.66155,9.26855,2.0864,7.75151,-2.68121,30.0263,11,0,0,0
0,1405087568,234413,-3.95964,23.889,9.62553,26.0579,-8.50141,-0.571513,3.63145,9.26219,1.49946,6.57428,-1.11506,30.1396,10,0,0,0
0,1405087569,235419,-4.33778,24.5145,9.58208,26.6757,-8.57272,-0.586044,3.55174,9.29784,1.5406,6.89406,-1.04686,30.2347,10,0,0,0
0,1405087570,236424,-4.4529,24.2692,9.76085,26.5349,-8.5228,-0.607716,3.54186,9.24944,1.57467,7.84477,-0.861816,30.1727,10,0,0,0
0,1405087571,237428,-4.5147,24.2225,10.0675,26.617,-8.53048,-0.602586,3.59905,9.27822,1.01664,7.38523,-1.3825,30.2032,12,0,0,0
0,1405087572,238429,-4.12464,24.1296,9.55933,26.2798,-8.50278,-0.611475,3.69334,9.29042,1.25876,7.26106,-0.654209,30.2143,9,0,0,0
0,1405087573,239433,-3.67794,24.0761,9.5596,26.1644,-8.48986,-0.576051,3.67135,9.26759,0.929059,7.57742,-1.77755,30.3002,10,0,0,0
0,1405087574,240438,-3.78313,24.0985,9.44475,26.1582,-8.52128,-0.613563,3.63677,9.28519,1.93655,6.60762,-1.45852,30.4137,11,0,0,0
0,1405087575,241439,-3.74072,23.8442,9.48001,25.9309,-8.52298,-0.589205,3.65065,9.29062,1.51967,7.79141,-0.272871,30.4877,9,0,0,0
0,1405087576,242444,-3.52436,24.0893,9.14642,26.0072,-8.50787,-0.624293,3.63506,9.27293,1.49306,7.16682,0.0563119,30.5814,9,0,0,0
0,1405087577,243459,-4.28002,24.3161,9.88264,26.5943,-8.53187,-0.602283,3.64089,9.29579,1.83958,7.61539,-1.19788,30.6435,8,0,0,0
0,1405087578,244460,-4.52176,24.0107,9.93219,26.3744,-8.51813,-0.583609,3.61679,9.27256,1.57824,7.03916,-1.39629,30.5978,10,0,0,0
0,1405087579,245461,-3.82348,24.2377,9.50761,26.315,-8.52196,-0.617761,3.61526,9.27769,1.47462,6.43962,-3.35837,30.5424,10,0,0,0
0,1405087580,246464,-4.2152,24.1361,9.50805,26.2816,-8.50544,-0.584064,3.64189,9.27076,1.45383,6.96524,-0.579866,30.6884,10,0,0,0
0,1405087581,247469,-3.85659,24.2436,9.12092,26.1881,-8.52014,-0.623935,3.64863,9.28948,2.206,7.03742,-1.63421,30.7853,10,0,0,0
0,1405087582,248475,-4.09266,24.0351,9.46608,26.1542,-8.5123,-0.569959,3.69876,9.29865,0.949617,6.51045,-1.34413,30.7337,10,0,0,0
0,1405087583,249481,-4.09329,24.2317,9.67045,26.4092,-8.51068,-0.601899,3.63969,9.27584,1.41981,6.81355,-2.38651,30.7546,9,0,0,0
0,1405087584,250487,-4.07676,24.108,9.43186,26.2064,-8.52416,-0.591223,3.60512,9.27403,1.82952,8.21982,-1.36857,30.6492,10,0,0,0
0,1405087585,251489,-3.88149,24.3492,9.2269,26.3265,-8.51782,-0.580828,3.71602,9.31126,2.34435,7.16627,-1.36812,30.8394,10,0,0,0
0,1405087586,252491,-4.20147,23.9332,9.49835,26.0896,-8.56342,-0.596013,3.62846,9.31951,1.76842,7.55421,-0.827485,30.7992,9,0,0,0
0,1405087587,253493,-4.02371,24.0513,9.80035,26.2812,-8.5067,-0.587722,3.66599,9.28164,0.453469,7.2389,-2.41461,30.9036,9,0,0,0
0,1405087588,254496,-3.55831,24.1274,9.29646,26.1001,-8.51911,-0.605832,3.62329,9.27742,2.34651,7.28005,-1.91815,30.9779,11,0,0,0
0,1405087589,255502,-4.20631,23.855,9.98811,26.2015,-8.50388,-0.5929,3.64965,9.27294,1.42567,6.27264,-2.16717,30.934,10,0,0,0
0,1405087590,256504,-4.07226,23.9281,9.58562,26.0964,-8.50868,-0.615078,3.66581,9.28515,2.05507,8.56878,-2.15249,31,11,0,0,0
0,1405087591,257509,-3.78983,23.9749,9.26505,25.9807,-8.51469,-0.598534,3.67734,9.29414,1.64806,7.51488,-1.11586,31.0224,10,0,0,0
0,1405087592,258515,-4.16805,24.2896,9.24045,26.32,-8.5348,-0.593305,3.65063,9.30172,1.55536,7.3174,-1.88081,31.0234,10,0,0,0
0,1405087593,259518,-3.81863,24.4845,9.51492,26.5444,-8.54845,-0.597309,3.64557,9.31251,1.44509,6.94003,-0.930536,30.9905,11,0,0,0
0,1405087594,260520,-3.76944,24.0421,9.27964,26.0451,-8.50586,-0.575414,3.68187,9.28638,0.987879,7.2702,-1.19654,31.0624,10,0,0,0
0,1405087595,261523,-4.00373,24.2063,9.56544,26.3338,-8.53493,-0.591348,3.65098,9.30184,0.763132,6.91238,-2.58626,31.1229,10,0,0,0
0,1405087596,262526,-4.0099,24.0439,9.97053,26.3363,-8.51868,-0.582212,3.63268,9.27918,1.78249,6.10145,-1.70815,31.0307,11,0,0,0
0,1405087597,263530,-3.90299,23.9808,9.4884,26.0834,-8.54367,-0.601115,3.6348,9.30416,0.959079,6.31607,-1.57938,31.1752,10,0,0,0
0,1405087598,264533,-3.67772,24.1525,9.51013,26.2166,-8.49092,-0.613039,3.63127,9.25514,2.13375,7.06678,-2.13259,31.1207,11,0,0,0
0,1405087599,265538,-3.81403,24.104,9.73721,26.2747,-8.53466,-0.566959,3.64626,9.29823,0.855251,7.1897,-2.23451,31.1319,10,0,0,0
0,1405087600,266543,-4.18833,24.187,9.72615,26.4036,-8.53096,-0.625095,3.64388,9.29763,0.471838,7.0914,-2.99296,31.2042,12,0,0,0
0,1405087601,267544,-3.89936,24.4979,9.67885,26.6277,-8.51353,-0.586106,3.63328,9.27494,1.13346,7.25034,-2.34863,31.2057,10,0,0,0
0,1405087602,268549,-3.90555,23.8405,9.53284,25.9711,-8.51779,-0.617651,3.59968,9.26779,2.04001,6.22152,-1.0054,31.2449,11,0,0,0
0,1405087603,269550,-3.85711,24.0879,9.22022,26.079,-8.52968,-0.607285,3.64833,9.29702,2.06253,7.1072,-1.93233,31.2326,10,0,0,0
0,1405087604,270558,-3.8992,23.8823,9.45628,25.9806,-8.49471,-0.582974,3.6485,9.26345,2.49428,6.32604,-0.962968,31.2373,12,0,0,0
0,1405087605,271562,-3.99959,24.1669,9.65084,26.3282,-8.52425,-0.546672,3.58187,9.26236,2.08551,6.78836,-1.22888,31.2725,11,0,0,0
0,1405087606,272567,-3.77611,24.3611,9.58602,26.4502,-8.5483,-0.584766,3.57122,9.28273,2.24549,7.33912,-0.859561,31.391,10,0,0,0
0,1405087607,273570,-4.20827,24.0354,9.68329,26.2522,-8.50271,-0.609299,3.65139,9.27362,1.4235,6.62027,-1.70585,31.332,10,0,0,0
0,1405087608,274572,-4.08147,24.211,9.77774,26.4279,-8.53847,-0.607092,3.65934,9.3094,2.07271,6.81972,-2.43407,31.2912,10,0,0,0
0,1405087609,275573,-4.0481,24.3182,9.41937,26.391,-8.5049,-0.609283,3.62856,9.26666,1.67346,7.2685,-2.23796,31.3377,11,0,0,0
0,1405087610,276576,-3.85727,24.1585,9.79052,26.3508,-8.53752,-0.594017,3.63917,9.29977,1.45615,7.64137,-1.40793,31.4064,11,0,0,0
0,1405087611,277581,-4.07712,24.2186,9.51604,26.3385,-8.48593,-0.604617,3.63403,9.25109,0.899898,7.54698,-0.926634,31.4556,10,0,0,0
0,1405087612,278585,-3.39582,23.7669,9.72708,25.9039,-8.47067,-0.5979,3.70114,9.26327,2.00741,6.77284,-1.75931,31.3744,10,0,0,0
0,1405087613,279586,-4.16049,24.3906,9.86143,26.6356,-8.50219,-0.60301,3.67116,9.28053,1.64552,6.98379,-2.37268,31.3725,10,0,0,0
0,1405087614,280589,-4.1549,23.8379,10.0005,26.1824,-8.54459,-0.623303,3.6372,9.30741,1.70125,7.07926,-2.12287,31.3801,11,0,0,0
0,1405087615,281590,-4.30851,24.2314,10.0698,26.5918,-8.49656,-0.622782,3.59626,9.2473,1.61511,7.64419,-1.28733,31.4979,10,0,0,0
0,1405087616,282595,-3.89867,24.4603,9.67042,26.5899,-8.53808,-0.615894,3.66088,9.31022,1.54829,7.30735,-0.581732,31.4525,10,0,0,0
0,1405087617,283599,-4.31136,24.1183,10.2613,26.5627,-8.50011,-0.838161,3.63777,9.28374,-0.36472,6.49295,0.189369,31.5941,10,0,0,0
0,1405087618,284603,-3.43274,24.4194,9.49901,26.4258,-8.50108,-0.632256,3.66983,9.28094,1.75139,7.47105,-2.95497,31.6231,7,0,0,0
0,1405087619,285611,-3.77912,25.0199,9.71283,27.1038,-8.51797,-0.606183,3.61096,9.27159,0.604656,7.3107,-1.6922,31.7994,6,0,0,0
0,1405087620,286629,-3.47248,24.5362,9.46037,26.5251,-8.55654,-0.550329,3.62051,9.30727,2.92836,7.31586,-0.95552,31.6222,8,0,0,0
0,1405087621,287640,-3.56589,24.1894,9.46787,26.2199,-8.51384,-0.614103,3.65479,9.28548,1.00555,8.00104,-2.47147,31.8096,6,0,0,0
0,1405087622,288649,-3.39612,24.2592,9.46499,26.2608,-8.52392,-0.628787,3.63029,9.2861,1.29168,8.22871,-1.54254,31.7887,5,0,0,0
0,1405087623,289655,-3.74342,24.4437,9.59162,26.5237,-8.52497,-0.585742,3.61018,9.2764,-0.331837,8.38377,-1.45652,31.6623,6,0,0,0
0,1405087624,290662,-3.61111,24.0723,9.53398,26.1422,-8.50808,-0.588815,3.66509,9.28262,0.671118,7.41903,-1.98393,31.8155,7,0,0,0
0,1405087625,291669,-3.55246,24.2227,9.79849,26.3699,-8.52774,-0.595865,3.58925,9.27147,0.374752,7.24837,-0.727536,31.8486,6,0,0,0
0,1405087626,292670,-3.85549,24.6256,9.20147,26.5697,-8.48811,-0.636024,3.63309,9.25483,0.848825,7.00115,-1.70945,31.8051,5,0,0,0
0,1405087627,293674,-3.6399,24.5498,9.24626,26.4846,-8.49377,-0.622145,3.68859,9.281,1.83387,7.97302,-1.64238,31.8997,6,0,0,0
0,1405087628,294677,-3.99025,24.5072,9.52556,26.5944,-8.52245,-0.628718,3.60345,9.27428,1.98739,6.3932,-1.47359,31.9804,5,0,0,0
0,1405087629,295681,-3.51733,24.8724,9.45317,26.8397,-8.5375,-0.604242,3.62755,9.29587,0.399671,7.11456,0.0962592,31.985,6,0,0,0
0,1405087630,296689,-3.93826,24.5398,9.40383,26.5733,-8.52389,-0.595321,3.65372,9.29305,2.03531,6.56736,-1.63464,32.0116,6,0,0,0
0,1405087631,297699,-3.305,24.1136,9.37723,26.0829,-8.52227,-0.609214,3.61584,9.27764,0.742416,7.35029,-1.81291,32.0167,7,0,0,0
0,1405087632,298703,-3.74244,24.4506,9.70805,26.5722,-8.52221,-0.601377,3.62831,9.28193,2.79724,7.82423,-1.05184,32.0874,7,0,0,0
0,1405087633,299707,-3.68467,24.5651,9.49387,26.5924,-8.49711,-0.623352,3.63296,9.26218,2.89525,7.47889,-2.77052,32.1007,5,0,0,0
0,1405087634,300716,-3.64359,24.3683,9.38967,26.3677,-8.50606,-0.614356,3.62803,9.26786,1.6517,7.36472,-1.79886,32.0695,6,0,0,0
0,1405087635,301720,-3.59642,24.7632,9.69955,26.8371,-8.51111,-0.596068,3.62469,9.26998,-0.252333,7.83969,-1.68241,32.2143,6,0,0,0
0,1405087636,302722,-3.48436,24.2937,9.46814,26.3053,-8.51103,-0.612261,3.68106,9.29315,1.39165,7.5983,-1.52003,32.2171,7,0,0,0
0,1405087637,303731,-3.64878,24.3599,9.3719,26.3543,-8.50844,-0.587523,3.65405,9.27851,2.34023,8.00517,-2.04352,32.1495,7,0,0,0
0,1405087638,304738,-3.73406,24.7618,9.59737,26.8179,-8.5061,-0.620994,3.61368,9.26273,2.69554,7.62758,-2.30038,32.2495,6,0,0,0
0,1405087639,305742,-3.6537,24.5047,9.37594,26.4903,-8.51417,-0.598707,3.659,9.28643,3.21394,7.4052,-2.0248,32.2346,7,0,0,0
0,1405087640,306750,-3.69495,24.2901,9.5086,26.3453,-8.50748,-0.602172,3.63302,9.27031,0.675778,6.37519,-0.198493,32.3395,6,0,0,0
0,1405087641,307751,-3.85499,24.7509,9.3388,26.7335,-8.53304,-0.61288,3.63532,9.29537,2.05959,8.24432,-1.91745,32.3455,6,0,0,0
0,1405087642,308757,-3.6527,24.3232,9.48566,26.3617,-8.54105,-0.62615,3.63533,9.30361,1.31337,7.41101,-1.10185,32.2774,7,0,0,0
0,1405087643,309761,-3.68164,24.5142,9.47786,26.5392,-8.51266,-0.626953,3.6321,9.27634,2.95451,7.47283,-1.94084,32.3117,6,0,0,0
0,1405087644,310768,-3.48503,24.6385,9.65735,26.692,-8.49969,-0.615991,3.63956,9.26664,1.83484,8.23804,-0.934563,32.2469,7,0,0,0
0,1405087645,311771,-3.79816,24.738,9.25565,26.6845,-8.51002,-0.653237,3.66556,9.28889,1.05624,7.44025,-0.754586,32.3247,7,0,0,0
0,1405087646,312779,-3.66197,24.8737,9.64542,26.9285,-8.53136,-0.607293,3.662,9.30393,-0.447304,7.57166,-1.81406,32.3774,6,0,0,0
0,1405087647,313781,-3.50009,24.4225,9.85961,26.5692,-8.54222,-0.583141,3.63672,9.30244,0.19894,7.0334,-1.51056,32.5063,6,0,0,0
0,1405087648,314782,-3.92016,24.7123,9.39507,26.727,-8.50832,-0.600057,3.65795,9.28074,3.03455,6.79833,-3.01469,32.4492,5,0,0,0
0,1405087649,315787,-3.35828,24.5278,9.02266,26.3496,-8.513,-0.575734,3.61633,9.26717,2.9473,8.29965,-1.15718,32.4804,7,0,0,0
0,1405087650,316798,-3.3628,24.2937,9.27034,26.219,-8.51365,-0.614294,3.65883,9.28691,0.672486,8.02991,-1.54819,32.5741,7,0,0,0
0,1405087651,317805,-3.79399,24.832,9.31832,26.7928,-8.52367,-0.602084,3.61078,9.27648,-0.4715,6.58831,-1.2109,32.6071,7,0,0,0
0,1405087652,318808,-3.21883,24.3353,9.50654,26.3238,-8.48866,-0.619637,3.67386,9.27031,1.96909,5.71797,-2.00123,32.5592,6,0,0,0
0,1405087653,319816,-3.96564,24.5241,9.40774,26.5643,-8.53829,-0.631453,3.58645,9.28244,1.74096,7.3794,-1.97359,32.6061,6,0,0,0
0,1405087654,320818,-3.45482,24.353,9.52487,26.3766,-8.49584,-0.60034,3.67042,9.27424,2.66124,7.45866,-2.13572,32.5833,6,0,0,0
0,1405087655,321819,-3.86737,24.8131,9.39813,26.8136,-8.51212,-0.616395,3.68041,9.29416,0.213387,7.43468,-0.712242,32.5606,8,0,0,0
0,1405087656,322825,-3.71692,24.7792,9.47344,26.7875,-8.5279,-0.617307,3.63067,9.28913,0.92989,6.8264,-1.9467,32.5682,6,0,0,0
0,1405087657,323827,-3.65033,24.446,9.37479,26.4352,-8.50442,-0.604489,3.63067,9.26674,2.38611,7.89323,-0.929363,32.646,6,0,0,0
0,1405087658,324828,-3.69322,24.8138,9.77774,26.9252,-8.50996,-0.610313,3.67905,9.29125,2.44254,6.96068,-0.794889,32.6673,5,0,0,0
0,1405087659,325837,-3.66847,24.634,9.38373,26.6147,-8.50128,-0.608772,3.67263,9.28065,1.88346,8.73305,-1.71058,32.708,7,0,0,0
0,1405087660,326839,-3.53123,24.3471,9.45984,26.3579,-8.52111,-0.610616,3.63721,9.28502,1.49552,7.10957,-1.54802,32.6778,7,0,0,0
0,1405087661,327849,-3.51433,24.3909,9.44542,26.391,-8.52268,-0.601858,3.61954,9.27897,0.315916,7.13353,-2.35587,32.7311,6,0,0,0
0,1405087662,328857,-3.41094,24.6091,9.48031,26.5917,-8.50761,-0.593514,3.66852,9.28384,1.68195,6.45232,-2.03929,32.7528,7,0,0,0
0,1405087663,329859,-3.57606,24.3084,9.51898,26.3495,-8.5391,-0.591399,3.65161,9.30593,1.74467,7.72843,-0.11751,32.7641,6,0,0,0
0,1405087664,330864,-3.56028,24.8198,9.69097,26.8814,-8.51448,-0.604459,3.6229,9.27292,3.53162,7.22344,-1.68017,32.7667,7,0,0,0
0,1405087665,331873,-3.22228,24.3501,9.58372,26.3659,-8.506,-0.59696,3.62429,9.2652,-0.137648,8.04095,-0.941931,32.8224,7,0,0,0
0,1405087666,332886,-3.32948,24.4114,9.69243,26.4753,-8.52202,-0.613499,3.60123,9.27201,0.445335,7.0309,-1.07989,32.7496,6,0,0,0
0,1405087667,333892,-3.34335,24.2145,9.3037,26.1549,-8.52904,-0.491311,3.66104,9.29457,0.057334,6.27109,-0.831896,32.7623,6,0,0,0
0,1405087668,334895,-3.30616,24.9649,9.26957,26.8347,-8.52537,-0.614444,3.60869,9.27805,1.36502,7.07993,-2.72872,32.8037,6,0,0,0
0,1405087669,335898,-3.49711,24.3893,9.53303,26.4186,-8.53668,-0.597275,3.63473,9.29747,2.30027,7.61198,-2.32486,32.715,7,0,0,0
0,1405087670,336899,-3.48836,24.4162,9.23873,26.3377,-8.49637,-0.577115,3.67095,9.27347,0.625908,6.86467,-0.445312,32.8663,6,0,0,0
0,1405087671,337907,-3.20914,24.2843,9.41484,26.2424,-8.50662,-0.576303,3.64544,9.27275,1.23843,7.4523,-0.929439,32.8309,5,0,0,0
0,1405087672,338912,-3.70992,24.8212,9.69813,26.9055,-8.53583,-0.609002,3.66321,9.30862,1.85152,7.5298,-1.77133,32.8565,6,0,0,0
0,1405087673,339920,-3.24002,24.4048,9.43835,26.3661,-8.51448,-0.605722,3.63034,9.27591,0.65161,8.7777,-1.76446,32.7895,5,0,0,0
0,1405087674,340923,-3.67319,25,9.0861,26.8524,-8.51127,-0.584954,3.63891,9.275,-0.561652,7.80148,-2.46846,32.9407,6,0,0,0
0,1405087675,341925,-3.21923,24.3483,9.34898,26.2794,-8.52759,-0.613149,3.61055,9.28072,1.26972,7.14591,-1.82268,32.9704,6,0,0,0
0,1405087676,342927,-3.83323,24.8128,9.5479,26.8613,-8.52639,-0.59782,3.64342,9.29146,1.94947,8.00813,-2.34661,32.9077,6,0,0,0
0,1405087677,343928,-3.52774,25.2538,9.57459,27.2373,-8.49754,-0.5699,3.66556,9.27196,0.265623,8.75253,-2.90426,32.9995,8,0,0,0
0,1405087678,344933,-3.49217,24.8793,9.77926,26.9594,-8.52515,-0.612479,3.60254,9.27532,1.21204,7.08925,-0.979829,32.9793,6,0,0,0
0,1405087679,345941,-4.09358,24.7336,9.35023,26.7569,-8.51775,-0.606815,3.63183,9.27957,2.71577,7.54137,-2.15875,33.0229,6,0,0,0
0,1405087680,346950,-3.30937,24.5665,9.43765,26.5243,-8.51536,-0.59552,3.62517,9.27404,0.644478,6.57521,-2.54795,33.0807,6,0,0,0
0,1405087681,347952,-3.6077,24.5204,9.07198,26.3926,-8.52247,-0.590676,3.60445,9.27219,2.64177,6.57106,-0.495825,32.971,5,0,0,0
0,1405087682,348958,-3.67988,24.7396,9.20106,26.6505,-8.5141,-0.59373,3.61993,9.27072,1.50649,7.63461,-2.72631,33.1224,6,0,0,0
0,1405087683,349961,-3.87133,24.9804,9.37562,26.9613,-8.5135,-0.605738,3.64796,9.28193,1.98362,8.38553,-0.374019,33.0707,6,0,0,0
0,1405087684,350969,-3.47922,24.472,9.94284,26.6429,-8.50613,-0.608436,3.65249,9.27713,2.65634,7.61125,-0.472152,32.9795,6,0,0,0
0,1405087685,351972,-3.26144,24.513,9.18528,26.3798,-8.52204,-0.612488,3.63598,9.28551,1.11105,7.69885,-1.6106,33.1675,6,0,0,0
0,1405087686,352980,-3.38461,24.4144,9.39029,26.3761,-8.52379,-0.595563,3.65206,9.29232,0.576133,8.15469,-1.88711,33.1045,7,0,0,0
0,1405087687,353981,-3.71435,25.0261,9.57909,27.0529,-8.5176,-0.607675,3.6259,9.27717,0.429904,8.5349,-0.952573,33.1896,6,0,0,0
0,1405087688,354987,-3.44742,24.4442,9.39258,26.4126,-8.52742,-0.612969,3.64783,9.29512,2.45033,8.62469,-1.08666,33.2128,6,0,0,0
0,1405087689,355992,-3.62942,24.5036,9.42062,26.5018,-8.50894,-0.602408,3.64747,9.27734,-0.882776,8.44348,-2.07553,33.1504,6,0,0,0
0,1405087690,356993,-3.52925,24.782,9.35155,26.7218,-8.50343,-0.618828,3.63812,9.26969,1.18943,7.73278,-2.80782,33.0948,6,0,0,0
0,1405087691,357994,-3.57931,24.7848,9.50108,26.7837,-8.50044,-0.59257,3.62218,9.25899,1.56613,7.70423,-2.09336,33.1038,6,0,0,0
0,1405087693,359001,-3.42359,24.4054,9.48237,26.4057,-8.5146,-0.603709,3.63359,9.27717,1.04033,8.10937,-0.871019,33.3119,7,0,0,0
0,1405087694,360006,-3.88663,24.6748,9.59146,26.7572,-8.52528,-0.606295,3.63169,9.2864,2.01918,7.9106,-1.30717,33.3194,6,0,0,0
0,1405087695,361009,-3.83675,24.9786,9.60035,27.0336,-8.52153,-0.604183,3.62475,9.2801,2.39957,6.80548,-0.424432,33.3197,7,0,0,0
0,1405087696,362012,-3.81418,24.8699,9.34568,26.8403,-8.52691,-0.607616,3.61835,9.28277,1.02449,8.18976,0.102174,33.4798,7,0,0,0
0,1405087697,363021,-3.18487,24.1763,9.47397,26.1609,-8.52327,-0.630107,3.64427,9.29107,2.58418,7.81833,-0.610703,33.3735,6,0,0,0
0,1405087698,364024,-3.74237,24.8636,9.64033,26.9284,-8.53125,-0.618403,3.64021,9.29601,2.00393,7.05409,-1.24311,33.3398,7,0,0,0
0,1405087699,365033,-3.07095,24.2496,9.26044,26.1387,-8.50814,-0.628571,3.65136,9.27987,-0.00860043,8.0766,-2.83703,33.3399,7,0,0,0
0,1405087700,366036,-3.5821,24.3078,9.40176,26.3077,-8.5226,-0.596518,3.62563,9.28093,0.644019,7.61672,-1.79434,33.4799,7,0,0,0
0,1405087701,367040,-3.45833,24.8723,9.87328,26.9828,-8.50075,-0.58821,3.6693,9.27753,2.20978,7.55512,-2.00601,33.4274,6,0,0,0
0,1405087702,368049,-3.83691,25.0704,9.34226,27.0282,-8.50995,-0.602533,3.66388,9.28474,0.716038,9.02667,-1.81634,33.517,6,0,0,0
0,1405087703,369053,-3.06328,24.1657,9.50675,26.1484,-8.49958,-0.602079,3.67234,9.27855,1.02369,7.2361,-0.946064,33.4982,6,0,0,0
0,1405087704,370062,-3.89334,24.7023,9.38527,26.7104,-8.52049,-0.608949,3.6645,9.29506,1.44601,7.09491,-1.1211,33.4969,6,0,0,0
0,1405087705,371070,-3.42281,24.5494,9.4317,26.5207,-8.50544,-0.613841,3.65368,9.27732,1.17143,6.63617,-1.64104,33.6045,7,0,0,0
0,1405087706,372088,-3.56924,24.6551,9.4121,26.6308,-8.53146,-0.563993,3.62245,9.28579,0.74352,7.20439,-1.28891,33.5712,7,0,0,0
0,1405087707,373093,-3.89546,24.9199,9.59607,26.9863,-8.53677,-0.606409,3.64612,9.3026,2.25489,7.19811,-1.46007,33.546,6,0,0,0
0,1405087708,374094,-3.16848,24.484,9.50921,26.4562,-8.52534,-0.626122,3.63015,9.28717,0.624773,7.48265,-1.33388,33.6817,7,0,0,0
0,1405087709,375103,-3.47508,24.6567,9.07426,26.5023,-8.52292,-0.596004,3.64355,9.28821,0.902804,8.37002,-1.24027,33.617,6,0,0,0
0,1405087710,376106,-3.42217,24.7313,8.99414,26.5375,-8.50817,-0.608872,3.57924,9.25044,1.76785,7.64593,-1.35431,33.5156,7,0,0,0
0,1405087711,377115,-3.25532,24.3165,9.55124,26.3271,-8.51997,-0.60282,3.65354,9.28987,1.74569,7.599,-0.895218,33.6091,7,0,0,0
0,1405087712,378123,-3.53519,24.4552,9.44931,26.4545,-8.49987,-0.614063,3.66936,9.27842,3.58202,7.5409,-2.03174,33.726,6,0,0,0
0,1405087713,379131,-3.18988,24.2566,9.75157,26.3372,-8.51542,-0.603062,3.64359,9.28181,2.0975,7.58539,-1.59373,33.6562,7,0,0,0
0,1405087714,380135,-3.1569,24.1443,9.39143,26.0981,-8.5091,-0.604255,3.64707,9.27744,1.89906,7.69258,-1.28972,33.7769,6,0,0,0
0,1405087715,381140,-3.52435,24.5916,9.57554,26.6244,-8.51633,-0.601271,3.65702,9.2878,1.77976,7.2181,-2.18167,33.7889,6,0,0,0
0,1405087716,382152,-3.51235,24.4561,9.33455,26.4116,-8.51031,-0.584817,3.62785,9.26977,2.32009,7.39042,-1.27945,33.6941,6,0,0,0
0,1405087717,383155,-3.4224,24.5785,9.49215,26.5691,-8.52189,-0.631892,3.58002,9.26491,2.79441,7.66101,-2.78347,33.894,6,0,0,0
0,1405087718,384156,-3.378,24.1653,9.39813,26.1476,-8.51916,-0.609382,3.65623,9.29061,1.47735,7.47598,-1.67307,33.8181,7,0,0,0
0,1405087719,385162,-3.53277,24.3764,9.59287,26.4332,-8.52967,-0.614107,3.60082,9.27892,1.15685,7.74966,-1.10541,33.8304,5,0,0,0
0,1405087720,386172,-3.73611,24.8499,9.2565,26.7798,-8.50991,-0.623752,3.61812,9.26814,1.10117,7.83551,-1.74435,33.9272,6,0,0,0
0,1405087721,387173,-3.50502,24.6003,9.20397,26.4986,-8.52588,-0.619075,3.61035,9.27947,2.7937,7.87482,-1.53331,33.9137,6,0,0,0
0,1405087722,388174,-3.88366,24.5437,9.78102,26.7048,-8.51728,-0.613967,3.63658,9.28147,0.755032,8.06346,-0.341023,33.9366,6,0,0,0
0,1405087723,389175,-3.58284,24.2671,9.29065,26.2306,-8.50971,-0.588733,3.62608,9.26878,2.7562,7.38842,-2.09494,33.8305,6,0,0,0
0,1405087724,390185,-3.49006,24.6124,9.256,26.5259,-8.48966,-0.616981,3.63946,9.25747,2.00726,7.36647,-1.47945,33.8921,6,0,0,0
0,1405087725,391193,-3.13087,24.2192,9.54919,26.2213,-8.5067,-0.607365,3.6363,9.27122,1.91317,7.22077,-0.76994,33.9324,6,0,0,0
0,1405087726,392196,-3.266,24.4544,9.30997,26.3696,-8.51781,-0.582212,3.65419,9.28683,1.53849,7.51916,-1.18281,33.9368,7,0,0,0
0,1405087727,393202,-3.26522,24.4524,8.88509,26.2208,-8.54023,-0.614746,3.65797,9.31097,1.60469,8.14564,-2.04864,33.9882,5,0,0,0
0,1405087728,394204,-3.81067,24.8266,9.40531,26.8205,-8.49328,-0.621977,3.66448,9.27098,1.93444,7.15664,-1.40162,34.0253,6,0,0,0
0,1405087729,395205,-3.12293,24.1637,9.43999,26.1295,-8.51348,-0.608034,3.61143,9.26777,1.19164,8.42686,-1.58847,33.9795,6,0,0,0
0,1405087730,396214,-3.64916,24.7218,9.12982,26.6052,-8.49418,-0.610755,3.66605,9.27168,2.71512,8.3439,-1.39368,34.0925,6,0,0,0
0,1405087731,397219,-3.45963,24.4678,9.43134,26.4498,-8.54493,-0.610136,3.60536,9.29445,3.17733,8.00506,-3.20976,34.0229,6,0,0,0
0,1405087732,398223,-3.39248,24.3209,9.3439,26.274,-8.54468,-0.59672,3.641,9.30723,1.32359,7.76613,-1.7286,34.0272,6,0,0,0
0,1405087733,399224,-3.36524,24.8701,9.4271,26.8089,-8.50354,-0.603163,3.64874,9.27294,-0.544638,8.81544,-1.46984,34.0916,5,0,0,0
0,1405087734,400233,-3.43449,24.7446,9.16401,26.6096,-8.51197,-0.633527,3.66232,9.28803,2.03983,7.98373,-1.25091,34.1241,7,0,0,0
0,1405087735,401244,-3.51503,24.3724,9.25283,26.3056,-8.51685,-0.60845,3.6077,9.26944,1.45415,8.97954,-2.83554,34.1313,6,0,0,0
0,1405087736,402248,-3.00969,24.1051,10.0229,26.2788,-8.5131,-0.616041,3.6433,9.28041,1.14657,6.87507,-2.12168,34.1461,6,0,0,0
0,1405087737,403249,-3.63553,24.4054,9.48008,26.4332,-8.52767,-0.604312,3.6436,9.29312,3.09203,7.33115,-1.63111,34.1582,6,0,0,0
0,1405087738,404258,-3.28706,24.5795,9.25216,26.4681,-8.5216,-0.598726,3.65436,9.29142,2.14157,7.55898,-1.14219,34.1871,7,0,0,0
0,1405087739,405269,-3.28313,24.3322,9.78285,26.4299,-8.50412,-0.604477,3.6407,9.27039,1.14534,7.51407,-2.36394,34.1586,6,0,0,0
0,1405087740,406273,-3.34103,23.9818,9.52542,26.0197,-8.52263,-0.587681,3.64757,9.28899,0.709823,8.37946,-1.37588,34.2302,6,0,0,0
0,1405087741,407282,-3.6324,24.8922,9.32703,26.8293,-8.51958,-0.617892,3.63695,9.28398,0.814116,8.55766,-1.91051,34.2086,6,0,0,0
0,1405087742,408285,-3.65291,24.719,9.45996,26.7182,-8.50679,-0.605449,3.61059,9.26112,1.21867,7.14847,-2.56222,34.2695,6,0,0,0
0,1405087743,409292,-3.37813,24.7305,9.30647,26.6387,-8.52459,-0.596589,3.64236,9.28931,3.09763,7.83993,-1.27926,34.232,6,0,0,0
0,1405087744,410300,-3.68214,24.4423,9.45454,26.4646,-8.51113,-0.605476,3.64926,9.28025,0.550739,8.33742,-2.10086,34.243,6,0,0,0
0,1405087745,411314,-3.49104,24.5787,9.50514,26.5828,-8.51581,-0.616549,3.60749,9.26893,0.983301,8.6858,-1.67442,34.2202,7,0,0,0
0,1405087746,412318,-3.3292,24.4699,9.56998,26.4847,-8.54346,-0.623218,3.611,9.29615,1.34509,8.80973,-1.45111,34.2158,5,0,0,0
0,1405087747,413328,-3.16173,24.5424,9.36719,26.4588,-8.52143,-0.610177,3.63319,9.2837,1.22383,8.52937,-0.7973,34.2488,6,0,0,0
0,1405087748,414330,-3.25814,24.4636,9.78888,26.5501,-8.53012,-0.612501,3.63991,9.29446,0.0811977,7.95009,-1.99255,34.2611,6,0,0,0
0,1405087749,415331,-3.40885,24.116,9.30047,26.071,-8.53731,-0.617355,3.62933,9.29724,0.862674,8.09993,-0.742173,34.2884,7,0,0,0
0,1405087750,416335,-3.29231,24.4345,9.5041,26.4237,-8.51558,-0.60944,3.6513,9.28539,0.412477,7.492,-2.18072,34.2822,7,0,0,0
0,1405087751,417344,-3.44994,24.3261,9.71026,26.4187,-8.52328,-0.615111,3.62304,9.28176,1.69241,8.2344,-2.61632,34.2473,5,0,0,0
0,1405087752,418352,-3.37899,24.4836,9.4099,26.4464,-8.52571,-0.613939,3.6316,9.28726,2.68323,7.22285,-1.95462,34.3354,6,0,0,0
0,1405087753,419365,-3.478,24.1312,9.44577,26.1464,-8.51013,-0.60759,3.63418,9.27355,1.21689,7.15433,-1.94381,34.2324,6,0,0,0
0,1405087754,420372,-3.46456,24.2087,9.23892,26.1423,-8.51625,-0.628921,3.62267,9.27608,0.977206,8.45059,-2.3179,34.3271,6,0,0,0
0,1405087755,421380,-3.25243,24.2316,9.32132,26.1655,-8.52779,-0.610095,3.63383,9.28979,0.867489,7.45587,-1.52144,34.3414,7,0,0,0
0,1405087756,422384,-3.24243,24.2397,9.74575,26.326,-8.50623,-0.587604,3.61889,9.2627,1.83718,7.11452,-1.19927,34.3331,6,0,0,0
0,1405087757,423389,-3.641,24.7556,9.40104,26.7297,-8.53766,-0.592644,3.63191,9.29697,0.267663,7.68123,-1.82553,34.3565,6,0,0,0
0,1405087758,424392,-3.46954,24.2397,9.26038,26.1793,-8.51227,-0.605755,3.61874,9.26936,0.0247911,7.77779,-2.13582,34.3548,6,0,0,0
0,1405087759,425394,-3.42243,24.4694,9.35524,26.4194,-8.51901,-0.604298,3.64452,9.28554,1.82548,7.68464,-2.39171,34.3555,6,0,0,0
0,1405087760,426400,-3.60172,24.8412,9.49733,26.8376,-8.5222,-0.611644,3.63537,9.28536,1.27358,7.0782,-1.40399,34.4402,7,0,0,0
0,1405087761,427405,-3.31647,24.5272,9.25279,26.4234,-8.50936,-0.630496,3.63458,9.27453,1.01549,8.36954,-2.3822,34.4656,6,0,0,0
0,1405087762,428415,-3.29237,24.3829,9.33269,26.3147,-8.51456,-0.582506,3.62218,9.27131,0.997558,6.90859,-1.14453,34.3721,6,0,0,0
0,1405087763,429426,-3.25899,24.5371,9.56842,26.5377,-8.52399,-0.627792,3.63394,9.28753,-0.377329,7.11959,-0.536597,34.4854,6,0,0,0
0,1405087764,430430,-3.37914,24.4766,9.36555,26.4242,-8.51171,-0.609899,3.62816,9.27279,1.19363,8.26009,-1.27584,34.5423,7,0,0,0
0,1405087765,431437,-3.25864,24.4559,9.7477,26.5279,-8.49889,-0.577359,3.65487,9.26944,2.65891,8.38408,-0.607417,34.5139,7,0,0,0
0,1405087766,432442,-3.73232,24.8723,9.44267,26.8649,-8.5302,-0.591221,3.63622,9.29172,1.10363,8.57267,-2.23744,34.3916,7,0,0,0
0,1405087767,433445,-3.62992,24.6872,9.23005,26.605,-8.53577,-0.601861,3.65009,9.30295,0.239455,7.74311,-2.24991,34.5216,7,0,0,0
0,1405087768,434458,-3.57079,24.4376,9.13551,26.3326,-8.50282,-0.587173,3.63299,9.26506,1.91355,7.85638,-0.643005,34.5813,5,0,0,0
0,1405087769,435462,-3.54383,24.0988,9.17536,26.0288,-8.49822,-0.581332,3.62562,9.25758,-0.853978,7.38846,-1.33765,34.462,7,0,0,0
0,1405087770,436463,-3.46275,24.577,9.12521,26.444,-8.52676,-0.588655,3.64103,9.29027,1.99396,7.82954,-2.35969,34.5782,6,0,0,0
0,1405087771,437471,-3.39177,24.4695,9.41068,26.4353,-8.50623,-0.600338,3.61411,9.26164,0.916273,8.34541,-2.5066,34.6616,5,0,0,0
0,1405087772,438480,-3.46511,24.2774,9.34182,26.2425,-8.5003,-0.602215,3.61286,9.25584,2.50369,8.05875,-2.11593,34.6579,6,0,0,0
0,1405087773,439485,-3.74976,24.4397,9.12325,26.3551,-8.51381,-0.613102,3.64889,9.28306,2.18762,8.6533,-2.37155,34.7018,7,0,0,0
0,1405087774,440493,-3.75627,24.8087,9.23029,26.7354,-8.4923,-0.609223,3.58451,9.23792,2.08647,8.27426,-1.24937,34.7989,6,0,0,0
0,1405087775,441499,-3.51775,24.4955,9.42919,26.4823,-8.51919,-0.610398,3.62852,9.27983,1.26838,7.87047,-2.41494,34.7745,6,0,0,0
0,1405087776,442505,-3.26485,24.3373,9.35937,26.2785,-8.50925,-0.601617,3.6304,9.27087,1.39862,8.36917,-1.5805,34.8266,5,0,0,0
0,1405087777,443510,-3.27562,24.4975,9.16625,26.3605,-8.52461,-0.593517,3.66641,9.29859,2.29639,8.82747,-1.72289,34.7983,6,0,0,0
0,1405087778,444531,-3.45976,24.2851,9.30573,26.2361,-8.53371,-0.618869,3.61915,9.29007,1.21805,8.98272,-0.785705,34.7437,7,0,0,0
0,1405087779,445536,-3.51199,24.5701,9.4996,26.5757,-8.50675,-0.623474,3.63117,9.27033,1.76658,8.77087,-1.19906,34.7928,6,0,0,0
0,1405087780,446545,-3.34067,24.7833,9.5103,26.7548,-8.53715,-0.626162,3.64359,9.30326,2.46145,8.97879,-1.8152,34.7767,7,0,0,0
0,1405087781,447551,-3.29303,24.2158,9.37683,26.1759,-8.52311,-0.614486,3.64136,9.28873,1.11913,6.78192,-1.89573,34.8706,7,0,0,0
0,1405087782,448558,-3.6154,24.6222,9.72708,26.7196,-8.51331,-0.597132,3.55083,9.24346,0.600688,7.4757,-2.16511,34.9004,6,0,0,0
0,1405087783,449566,-3.2076,24.1955,9.26608,26.1069,-8.5385,-0.604094,3.6253,9.2959,1.418,8.28986,-0.622645,34.8282,6,0,0,0
0,1405087784,450567,-3.22453,24.211,9.41675,26.1772,-8.58845,-0.481137,3.47738,9.27821,0.204013,7.54975,-1.77029,34.8716,7,0,0,0
0,1405087785,451575,-3.62762,24.38,9.19685,26.3083,-8.48968,-0.579114,3.68439,9.2728,2.35387,8.21456,-0.639736,34.912,7,0,0,0
0,1405087786,452582,-3.42409,24.0938,9.54671,26.1414,-8.51802,-0.616944,3.62993,9.27975,1.30083,7.42741,-1.20442,34.9214,5,0,0,0
0,1405087787,453590,-3.38308,24.5383,9.36115,26.4803,-8.54448,-0.561503,3.64061,9.3047,1.67726,6.9049,-1.36255,34.8626,7,0,0,0
0,1405087788,454604,-3.64594,24.6625,9.407,26.6463,-8.57172,-0.673173,3.58407,9.31521,2.06491,7.46176,-2.0198,34.7774,6,0,0,0
0,1405087789,455608,-3.46157,24.626,9.12402,26.4891,-8.54767,-0.612684,3.59941,9.29483,-0.145919,8.36002,-1.82345,34.9073,5,0,0,0
0,1405087790,456612,-3.31596,24.2701,8.94204,26.0767,-8.57846,-0.565267,3.57755,9.31173,0.867112,8.26342,-1.6225,34.9854,7,0,0,0
0,1405087791,457615,-3.57951,24.7349,9.15547,26.6167,-8.48873,-0.583559,3.69991,9.27838,1.18189,8.07736,-0.788984,35.0061,6,0,0,0
0,1405087792,458616,-3.44603,24.4563,9.46235,26.4485,-8.51311,-0.623932,3.63341,9.27707,2.88329,8.52285,-1.59932,34.9474,7,0,0,0
0,1405087793,459617,-3.66355,24.6657,9.07605,26.5366,-8.50181,-0.618486,3.63055,9.26522,0.968198,8.08346,-1.05006,34.9984,7,0,0,0
0,1405087794,460618,-3.64587,24.5558,9.10876,26.4434,-8.53868,-0.588137,3.64471,9.30263,0.796929,8.49848,-2.44252,35.095,6,0,0,0
0,1405087795,461624,-3.40921,24.7762,9.37728,26.7098,-8.5265,-0.604096,3.60974,9.27881,1.65562,7.79336,-2.55056,35.0539,7,0,0,0
0,1405087796,462630,-3.57466,24.4152,9.3501,26.3876,-8.52747,-0.609823,3.6406,9.29213,-0.158584,9.48633,-1.5369,35.1542,6,0,0,0
0,1405087797,463635,-3.2614,25.0749,9.23445,26.9196,-8.51585,-0.588828,3.6317,9.27662,0.488336,8.40281,-1.18215,35.1588,6,0,0,0
0,1405087798,464644,-3.24849,24.4666,9.53592,26.4594,-8.52803,-0.600022,3.63121,9.28832,1.66802,8.66265,-3.29058,35.0728,6,0,0,0
0,1405087799,465646,-3.84738,24.3409,9.44698,26.3918,-8.51384,-0.617153,3.62653,9.27459,2.66398,8.81665,-1.86557,35.0959,6,0,0,0
0,1405087800,466653,-3.31194,24.4532,9.15599,26.3203,-8.51899,-0.591386,3.60885,9.27075,1.12158,7.56061,-2.50575,35.1145,7,0,0,0
0,1405087801,467660,-3.07804,24.0405,9.2626,25.9464,-8.52953,-0.608577,3.662,9.30234,0.120565,8.54968,-2.01032,35.1367,5,0,0,0
0,1405087802,468669,-3.40386,24.4678,9.53252,26.4788,-8.51831,-0.601503,3.62067,9.27538,1.70985,7.48913,-2.02645,35.095,7,0,0,0
0,1405087803,469671,-3.31692,24.6095,9.40606,26.5538,-8.5278,-0.613998,3.63863,9.29194,-0.0755337,8.26789,-2.32932,35.2012,6,0,0,0
0,1405087804,470672,-3.35885,24.1461,9.36391,26.1151,-8.49237,-0.609972,3.65819,9.26686,1.81513,7.77686,-1.40281,35.1757,6,0,0,0
0,1405087805,471673,-3.25345,24.3435,8.94024,26.1366,-8.51514,-0.634959,3.62522,9.27648,2.0017,8.30598,-1.53392,35.1666,6,0,0,0
0,1405087806,472680,-3.79733,24.6648,9.13479,26.5747,-8.52225,-0.613629,3.62897,9.28303,2.81179,7.63693,-1.65626,35.1213,7,0,0,0
0,1405087807,473688,-3.4063,24.6819,9.56171,26.6875,-8.50992,-0.601552,3.63397,9.27288,-0.874288,7.75324,-1.86344,35.1733,7,0,0,0
0,1405087808,474701,-3.53404,24.5376,9.62144,26.5924,-8.5249,-0.606507,3.61882,9.28104,1.48155,7.71678,-1.15825,35.232,7,0,0,0
0,1405087809,475707,-3.50414,24.8159,9.49994,26.8022,-8.52118,-0.635109,3.61363,9.27751,2.0155,8.37271,-1.43184,35.2713,6,0,0,0
0,1405087810,476710,-3.51189,24.5596,9.5674,26.5902,-8.52713,-0.592628,3.63621,9.28898,-0.669954,8.56161,-1.83988,35.2397,7,0,0,0
0,1405087811,477714,-3.39798,24.8049,9.37865,26.7355,-8.53278,-0.610763,3.65126,9.30124,1.76338,9.43725,-1.77185,35.1515,6,0,0,0
0,1405087812,478722,-3.65655,24.4474,9.60426,26.5195,-8.5354,-0.623939,3.61516,9.29041,2.34137,8.79336,-1.14588,35.127,7,0,0,0
0,1405087813,479736,-3.40145,24.4544,9.18508,26.343,-8.51842,-0.588031,3.65411,9.28773,0.242433,7.96552,-2.0538,35.281,7,0,0,0
0,1405087814,480738,-3.33844,24.6356,9.56201,26.6362,-8.52656,-0.632624,3.63719,9.29148,0.952786,8.74754,-1.78061,35.2701,6,0,0,0
0,1405087815,481743,-3.32844,24.3959,9.28772,26.3154,-8.53596,-0.613432,3.64973,9.30374,0.253795,7.1704,-0.568822,35.2247,6,0,0,0
0,1405087816,482748,-3.252,24.2272,9.61363,26.2669,-8.5289,-0.599786,3.65287,9.2976,0.476923,7.60213,-1.46603,35.2823,6,0,0,0
0,1405087817,483752,-3.40061,24.478,9.49523,26.4744,-8.50802,-0.63405,3.627,9.27057,0.252316,8.37693,-0.750567,35.335,6,0,0,0
0,1405087818,484764,-3.426,24.2402,9.29698,26.187,-8.51984,-0.632762,3.6323,9.28341,2.80232,7.76873,-1.71316,35.318,7,0,0,0
0,1405087819,485768,-3.51556,24.3587,9.23039,26.2851,-8.51617,-0.600087,3.62168,9.27371,2.55741,8.97892,-0.403192,35.2961,6,0,0,0
0,1405087820,486779,-3.38338,24.5581,9.31909,26.4839,-8.51583,-0.593237,3.61981,9.27223,0.960419,7.91971,-1.9789,35.3901,7,0,0,0
0,1405087821,487783,-3.41096,24.3107,9.67027,26.3848,-8.52124,-0.598047,3.61692,9.27639,0.881996,7.29227,-1.88801,35.363,5,0,0,0
0,1405087822,488788,-3.42015,24.5716,9.34679,26.5108,-8.52018,-0.61819,3.60565,9.27234,1.61843,6.98765,-0.898311,35.4739,7,0,0,0
0,1405087823,489793,-3.63068,24.7874,9.8526,26.9197,-8.53069,-0.618048,3.65315,9.30055,2.33867,8.92594,-1.87396,35.4266,6,0,0,0
0,1405087824,490794,-3.60739,24.8941,9.19712,26.7828,-8.51338,-0.603544,3.63175,9.27532,0.777234,7.96194,-1.31866,35.5148,6,0,0,0
0,1405087825,491795,-3.48844,24.6875,9.32673,26.6201,-8.50645,-0.601834,3.63623,9.2706,0.111568,8.32863,-2.46475,35.5238,6,0,0,0
0,1405087826,492796,-3.46301,24.2694,9.57137,26.3174,-8.52042,-0.611852,3.62834,9.28099,0.927364,8.1908,-0.634427,35.535,7,0,0,0
0,1405087827,493802,-3.718,24.7658,9.05731,26.6308,-8.51018,-0.597105,3.65792,9.28224,1.87422,7.96279,-0.0753358,35.5493,6,0,0,0
0,1405087828,494810,-3.29099,24.6014,9.45573,26.5607,-8.53203,-0.611618,3.63468,9.29411,-0.580462,9.48563,-2.6685,35.4628,6,0,0,0
0,1405087829,495813,-3.64754,24.9369,9.14094,26.8087,-8.53212,-0.602269,3.59526,9.27823,1.27874,8.74106,-1.25536,35.512,5,0,0,0
0,1405087830,496815,-3.52615,24.7907,9.3772,26.7384,-8.52046,-0.612261,3.62196,9.27856,3.12018,8.473,-2.44729,35.5097,7,0,0,0
0,1405087831,497817,-2.76547,24.5123,9.55379,26.4533,-8.54719,-0.594818,3.6364,9.30762,1.79911,7.56467,-2.14198,35.5048,7,0,0,0
0,1405087832,498823,-3.17143,23.6757,9.95614,25.879,-8.51718,-0.606951,3.65858,9.28956,2.09912,7.47898,-2.89363,35.6021,7,0,0,0
0,1405087833,499831,-3.00844,23.746,9.7643,25.8508,-8.50986,-0.612524,3.63979,9.27583,1.37938,8.1125,-1.69962,35.5218,7,0,0,0
0,1405087834,500840,-3.28967,24.1391,9.0437,25.9867,-8.51649,-0.605013,3.65411,9.28705,1.44527,7.51384,-0.961956,35.6033,6,0,0,0
0,1405087835,501842,-3.15652,24.0376,9.20969,25.9343,-8.49988,-0.617328,3.62423,9.26089,0.327044,8.57978,-1.68284,35.6198,7,0,0,0
0,1405087836,502847,-3.4617,23.9956,9.0356,25.8731,-8.51285,-0.606522,3.64244,9.27921,0.907306,7.99936,-1.38772,35.5387,7,0,0,0
0,1405087837,503857,-3.2359,24.5156,9.31878,26.4259,-8.51191,-0.612814,3.64105,9.27822,2.93964,7.58936,-1.67754,35.5199,6,0,0,0
0,1405087838,504858,-3.62868,24.4712,9.57895,26.5285,-8.51441,-0.592199,3.64906,9.28232,-0.176183,7.58346,-2.44109,35.6599,7,0,0,0
0,1405087839,505864,-3.52463,24.3811,9.43938,26.3811,-8.51711,-0.60133,3.62411,9.27561,1.35571,7.34942,-1.73076,35.7231,6,0,0,0
0,1405087840,506873,-3.29158,24.6675,9.654,26.6931,-8.52122,-0.618895,3.6289,9.28241,0.568725,9.54782,-1.4251,35.6906,6,0,0,0
0,1405087841,507884,-3.33884,24.3927,9.32512,26.3269,-8.53011,-0.588283,3.60354,9.27871,2.19576,9.02413,-2.37103,35.6104,6,0,0,0
0,1405087842,508890,-3.69521,24.57,9.85517,26.7294,-8.46771,-0.593149,3.62659,9.23072,0.439499,8.09353,-2.45687,35.7602,7,0,0,0
0,1405087843,509894,-3.5847,24.6028,9.22193,26.5178,-8.51965,-0.617816,3.66453,9.29489,2.33882,9.53918,-2.88796,35.8258,7,0,0,0
0,1405087844,510898,-3.71363,24.6036,9.47824,26.6264,-8.50048,-0.618513,3.62437,9.26157,2.17648,7.61637,-2.36023,35.7847,7,0,0,0
0,1405087845,511906,-3.52419,24.2542,9.60135,26.3225,-8.49135,-0.604006,3.64325,9.25965,0.49087,8.5651,-2.20549,35.7514,6,0,0,0
0,1405087846,512919,-3.54721,24.2742,9.47791,26.2992,-8.50225,-0.622385,3.64362,9.27101,2.61564,9.02117,-2.07172,35.6648,7,0,0,0
0,1405087847,513920,-3.42949,24.6395,9.49796,26.6285,-8.48576,-0.596526,3.66733,9.26354,2.95011,9.04649,-1.31241,35.7525,7,0,0,0
0,1405087848,514923,-3.36064,24.2335,9.38332,26.2031,-8.56671,-0.62067,3.63614,9.32712,0.635856,8.22954,-2.51809,35.65,7,0,0,0
0,1405087849,515927,-3.12487,24.2119,9.23213,26.1001,-8.51785,-0.632429,3.6467,9.2872,0.594027,8.30776,-1.62474,35.7663,6,0,0,0
0,1405087850,516930,-3.55772,24.2645,8.73429,26.0329,-8.53367,-0.640543,3.59882,9.28361,1.6379,6.66049,-1.12485,35.7788,6,0,0,0
0,1405087851,517938,-3.49776,24.5696,8.98833,26.3949,-8.50025,-0.572292,3.64252,9.26551,1.98979,8.17225,-2.03932,35.7402,7,0,0,0
0,1405087852,518943,-3.46104,24.423,8.73292,26.1672,-8.49842,-0.595539,3.61461,9.25436,0.454447,8.99908,-1.40275,35.8075,8,0,0,0
0,1405087853,519945,-3.58473,24.2129,9.28302,26.178,-8.51389,-0.61668,3.61648,9.27068,0.677983,7.08255,-2.08792,35.873,6,0,0,0
0,1405087854,520956,-3.21332,24.3082,8.99478,26.1174,-8.5271,-0.603415,3.62288,9.28443,1.81009,9.18058,-1.63573,35.793,6,0,0,0
0,1405087855,521959,-3.55396,24.4141,8.9238,26.2357,-8.53243,-0.613281,3.6142,9.2866,1.3482,7.56071,-1.56983,35.7842,6,0,0,0
0,1405087856,522968,-3.34056,24.2926,8.80364,26.0537,-8.5225,-0.608963,3.6549,9.29313,0.0147751,8.78597,-1.87994,35.8871,7,0,0,0
0,1405087857,523971,-3.50103,24.3293,8.7134,26.0787,-8.52212,-0.613624,3.63292,9.28446,0.61303,8.64545,-1.33397,35.8277,7,0,0,0
0,1405087858,524973,-3.41111,24.4242,8.96097,26.2388,-8.52586,-0.591516,3.63835,9.28858,1.71149,8.13646,-1.55385,35.8055,6,0,0,0
0,1405087859,525975,-3.30787,24.6803,8.83617,26.4223,-8.52847,-0.602376,3.63528,9.29047,2.47889,7.53662,-2.05492,35.8753,6,0,0,0
0,1405087860,526978,-3.47611,24.3835,8.74323,26.1359,-8.51552,-0.620834,3.6185,9.27325,1.59797,7.17218,-1.08352,35.952,6,0,0,0
0,1405087861,527988,-3.19726,24.5949,8.77852,26.3096,-8.51591,-0.57974,3.62189,9.27227,-0.168842,8.2822,-2.16222,35.8966,7,0,0,0
0,1405087862,528999,-3.38554,24.6106,8.92868,26.3982,-8.50589,-0.573914,3.66921,9.2813,1.70635,7.86348,-2.60895,35.8679,6,0,0,0
0,1405087864,530004,-3.56246,24.26,9.09309,26.1519,-8.5353,-0.604639,3.63609,9.29721,1.72594,8.06465,-2.22237,36.0078,6,0,0,0
0,1405087865,531009,-3.40885,24.675,9.01584,26.4908,-8.52158,-0.589833,3.62307,9.27857,1.47308,9.05023,-2.27867,35.9242,5,0,0,0
0,1405087866,532012,-3.60639,24.4835,8.9964,26.3322,-8.52224,-0.614636,3.62489,9.2815,2.0094,8.58061,-3.16808,36.0393,6,0,0,0
0,1405087867,533015,-3.2514,24.5155,8.9831,26.3112,-8.50683,-0.619474,3.6159,9.26416,0.0706235,8.33366,-1.56709,36.0755,6,0,0,0
0,1405087868,534026,-3.40634,24.4686,8.8605,26.2454,-8.54303,-0.608874,3.63415,9.30383,2.2861,7.68501,-1.94887,36.1218,7,0,0,0
0,1405087869,535029,-3.50932,24.1979,8.90959,26.0237,-8.51139,-0.571503,3.63857,9.27414,-0.268841,8.04527,-2.06164,36.0571,5,0,0,0
0,1405087870,536040,-3.47012,24.4371,8.5739,26.1291,-8.50645,-0.597175,3.64773,9.27482,1.52781,8.22926,-0.846864,36.0706,7,0,0,0
0,1405087871,537047,-3.30339,24.3242,8.68735,26.0394,-8.52639,-0.603696,3.63442,9.28831,0.756429,7.94909,-1.10492,36.1142,6,0,0,0
0,1405087872,538052,-3.32508,24.6187,9.35456,26.5452,-8.51675,-0.59938,3.59965,9.26562,0.636827,8.10398,-1.19311,36.0813,6,0,0,0
0,1405087873,539059,-3.38009,24.2905,8.90323,26.0906,-8.52688,-0.613406,3.63196,9.28844,0.903946,8.23368,-1.64092,35.9706,6,0,0,0
0,1405087874,540063,-3.53346,24.7377,8.8292,26.5027,-8.51695,-0.609075,3.63087,9.27861,1.90382,8.86692,-2.22618,36.0156,7,0,0,0
0,1405087875,541064,-3.3654,24.2618,8.90003,26.0609,-8.52111,-0.603476,3.61369,9.27536,1.5865,8.61881,-1.28785,36.2116,6,0,0,0
0,1405087876,542067,-3.45202,24.2581,8.929,26.0787,-8.52232,-0.599971,3.63798,9.28573,1.12574,8.27254,-2.10781,36.136,7,0,0,0
0,1405087877,543075,-3.31753,24.1482,9.1013,26.0187,-8.51664,-0.585956,3.63433,9.27819,1.04111,7.32057,-1.1383,36.1543,7,0,0,0
0,1405087878,544078,-3.38564,24.3665,8.82749,26.1364,-8.53004,-0.581817,3.60906,9.28038,0.869509,8.59893,-2.15259,36.1199,7,0,0,0
0,1405087879,545086,-3.65739,24.3536,8.9912,26.2167,-8.52042,-0.60414,3.62881,9.28066,1.25101,7.00857,-0.657094,36.2104,7,0,0,0
0,1405087880,546091,-3.49321,24.5748,8.69454,26.3005,-8.5165,-0.601128,3.61276,9.27061,-0.103242,7.85721,-1.79287,36.1684,7,0,0,0
0,1405087881,547097,-3.43154,24.6456,8.74501,26.3753,-8.52274,-0.602868,3.63627,9.28563,1.83725,8.68167,-2.20496,36.1839,6,0,0,0
0,1405087882,548102,-3.39573,24.3197,8.74173,26.0652,-8.53224,-0.612711,3.62571,9.29087,2.64173,8.66879,-2.258,36.1353,7,0,0,0
0,1405087883,549115,-3.53329,24.2525,8.85036,26.0575,-8.53072,-0.602016,3.62807,9.28969,1.06018,8.51385,-1.61435,36.1594,6,0,0,0
0,1405087884,550121,-3.15679,24.4954,8.70491,26.1871,-8.50634,-0.562238,3.64348,9.27086,3.49926,8.64308,-1.99269,36.2294,7,0,0,0
0,1405087885,551134,-3.41824,24.5397,8.72035,26.2664,-8.50269,-0.611575,3.63695,9.26807,0.663561,8.91832,-2.79148,36.0957,6,0,0,0
0,1405087886,552142,-3.51473,24.6584,8.8009,26.4168,-8.52689,-0.595937,3.62159,9.28326,0.647792,8.75486,-1.78854,36.2353,7,0,0,0
0,1405087887,553156,-3.72,24.5415,8.89883,26.3688,-8.52186,-0.613909,3.62763,9.28217,1.24484,8.36158,-2.94905,36.2616,6,0,0,0
0,1405087888,554164,-3.34692,24.2148,8.75467,25.9655,-8.53177,-0.589558,3.62188,9.28744,1.85266,8.47466,-1.45389,36.3581,6,0,0,0
0,1405087889,555165,-3.36781,24.2565,9.25732,26.1805,-8.53401,-0.603298,3.61587,9.28805,0.298029,7.44061,-1.64425,36.2824,6,0,0,0
0,1405087890,556168,-3.44142,24.3696,8.84563,26.1528,-8.51538,-0.591634,3.62367,9.27323,1.83082,8.50746,-0.973975,36.3236,7,0,0,0
0,1405087891,557174,-3.51216,24.4454,8.99262,26.2827,-8.52534,-0.602173,3.61711,9.28049,1.23744,9.40078,-1.4764,36.3441,7,0,0,0
0,1405087892,558178,-3.40015,24.5023,8.43398,26.1353,-8.52561,-0.60898,3.62836,9.28557,1.99077,7.98258,-2.61582,36.4211,7,0,0,0
0,1405087893,559184,-3.22783,24.6272,8.4954,26.2505,-8.53772,-0.600221,3.62299,9.29403,1.01367,8.41368,-1.82123,36.2794,7,0,0,0
0,1405087894,560201,-3.6374,24.3633,8.89668,26.1906,-8.51819,-0.616369,3.64011,9.28386,0.0404156,8.22001,-1.90596,36.2889,7,0,0,0
0,1405087895,561206,-3.24749,24.3934,9.1004,26.2374,-8.52453,-0.605897,3.61139,9.27776,1.92451,8.61235,-1.62849,36.2749,6,0,0,0
0,1405087896,562211,-3.29905,24.4208,8.8753,26.1921,-8.5388,-0.612431,3.62403,9.29622,1.25983,8.20278,-1.18397,36.3575,7,0,0,0
0,1405087897,563222,-3.2072,24.1923,8.90088,25.9765,-8.50785,-0.623371,3.62093,9.26732,0.624035,8.38379,-2.98091,36.4126,7,0,0,0
0,1405087898,564224,-3.11138,24.1284,8.56829,25.7929,-8.52771,-0.623272,3.67719,9.30764,1.03084,8.49356,-0.803243,36.2961,6,0,0,0
0,1405087899,565228,-3.44953,24.4821,9.33666,26.4281,-8.54129,-0.597297,3.62315,9.29719,-0.675994,8.45807,-2.22285,36.4469,6,0,0,0
0,1405087900,566233,-3.44792,24.641,8.7127,26.3624,-8.52011,-0.597052,3.66649,9.29472,2.2012,8.36544,-1.46988,36.3404,6,0,0,0
0,1405087901,567239,-3.49288,24.3542,8.77832,26.1225,-8.52713,-0.608016,3.61633,9.28221,3.08117,8.38811,-2.47758,36.4756,7,0,0,0
0,1405087902,568242,-3.34465,24.3732,8.7362,26.1067,-8.50636,-0.613622,3.62945,9.26864,-0.213389,8.61255,-2.0425,36.4706,7,0,0,0
0,1405087903,569244,-3.21029,24.461,8.88524,26.222,-8.52563,-0.592145,3.63388,9.28666,1.95084,8.81233,-1.60481,36.4602,6,0,0,0
0,1405087904,570264,-3.5196,24.4274,8.97946,26.2625,-8.50773,-0.59079,3.63604,9.271,1.99525,8.00821,-2.25768,36.3941,7,0,0,0
0,1405087905,571269,-3.41045,24.4224,8.89657,26.2151,-8.50716,-0.607332,3.64058,9.27332,0.271071,8.46435,-2.15851,36.4664,6,0,0,0
0,1405087906,572274,-3.45625,24.4584,9.07906,26.3171,-8.51257,-0.613735,3.63575,9.27681,1.05787,7.83592,-1.51717,36.5029,7,0,0,0
0,1405087907,573277,-3.4432,24.3387,8.94635,26.1584,-8.53369,-0.616361,3.59563,9.28075,0.490803,8.55603,-2.28331,36.441,6,0,0,0
0,1405087908,574285,-3.22581,24.3392,9.1204,26.1913,-8.52261,-0.621351,3.59895,9.27218,0.922055,8.36747,-3.00568,36.5167,7,0,0,0
0,1405087909,575294,-3.55629,24.5943,8.76726,26.3513,-8.53546,-0.611813,3.6264,9.29404,1.61284,8.22357,-1.90379,36.5215,6,0,0,0
0,1405087910,576300,-3.39741,24.7318,8.90708,26.5055,-8.537,-0.628479,3.6134,9.29151,1.22966,7.93054,-1.3739,36.4828,5,0,0,0
0,1405087911,577304,-3.50275,24.6251,8.92348,26.4252,-8.53282,-0.610341,3.61244,9.28608,0.342949,9.33125,-2.05567,36.4867,6,0,0,0
0,1405087912,578308,-3.49364,24.2688,8.90282,26.0852,-8.51742,-0.602787,3.63701,9.28104,2.06661,7.95043,-1.85035,36.4757,5,0,0,0
0,1405087913,579316,-3.36875,24.3836,8.58587,26.0696,-8.52873,-0.596909,3.64114,9.29266,2.81618,8.3689,-1.94867,36.4396,6,0,0,0
0,1405087914,580332,-3.63484,24.1158,8.92948,25.9715,-8.51017,-0.608095,3.63527,9.27405,1.92592,8.19338,-0.609799,36.5766,6,0,0,0
0,1405087915,581338,-3.41054,24.2383,8.97557,26.0709,-8.52252,-0.601434,3.63886,9.28636,1.11417,8.1549,-1.44378,36.6249,5,0,0,0
0,1405087916,582347,-3.46266,24.23,8.6826,25.9706,-8.51114,-0.609143,3.62727,9.27188,0.813632,8.23561,-2.54177,36.6178,7,0,0,0
0,1405087917,583359,-3.29127,24.511,8.78659,26.2455,-8.5066,-0.589283,3.63846,9.27081,2.00243,7.20412,-0.855862,36.4981,7,0,0,0
0,1405087918,584360,-3.47101,24.202,8.94768,26.0355,-8.53078,-0.593566,3.60077,9.27858,0.173731,8.01504,-2.07901,36.5881,7,0,0,0
0,1405087919,585368,-3.4111,24.4395,8.86868,26.2217,-8.49929,-0.631971,3.6521,9.27227,0.812556,8.79631,-1.96375,36.6207,7,0,0,0
0,1405087920,586375,-3.3679,24.343,8.68296,26.0637,-8.49706,-0.617668,3.67203,9.27714,1.6465,7.80944,-2.0232,36.6414,7,0,0,0
0,1405087921,587377,-3.27904,24.3379,8.85054,26.104,-8.52719,-0.595448,3.60853,9.27841,0.423524,8.31232,-1.78446,36.6398,7,0,0,0
0,1405087922,588384,-3.52511,24.1371,9.00138,26.0009,-8.50855,-0.627056,3.63216,9.27261,1.75549,7.91889,-1.23446,36.7103,5,0,0,0
0,1405087923,589391,-3.32826,24.2776,8.6636,25.9911,-8.52036,-0.625693,3.64204,9.28722,0.98504,8.33885,-1.27195,36.538,7,0,0,0
0,1405087924,590393,-3.65829,24.4766,9.01382,26.3389,-8.54164,-0.588897,3.60736,9.29083,1.66021,8.26387,-1.42195,36.554,6,0,0,0
0,1405087925,591396,-3.31273,24.5169,8.89642,26.2907,-8.53347,-0.60546,3.62884,9.29275,-0.286951,8.45904,-0.772029,36.6759,6,0,0,0
0,1405087926,592404,-3.34181,24.338,8.86182,26.1158,-8.52031,-0.611312,3.6319,9.28224,0.811967,8.9384,-1.63278,36.6492,7,0,0,0
0,1405087927,593407,-3.12739,24.4664,9.05025,26.2734,-8.52262,-0.593715,3.64533,9.28848,1.34656,8.74922,-1.64652,36.7417,6,0,0,0
0,1405087928,594416,-3.55031,24.6146,9.11319,26.4865,-8.52125,-0.613313,3.63481,9.28438,1.47615,7.46215,-2.90345,36.7411,6,0,0,0
0,1405087929,595419,-3.5522,24.474,8.77113,26.2398,-8.51639,-0.615158,3.67794,9.29702,2.85627,8.6063,-2.10234,36.8296,7,0,0,0
0,1405087930,596426,-3.23807,24.3988,8.85073,26.1557,-8.52728,-0.592639,3.6296,9.28654,1.40431,7.9246,-1.8896,36.7995,5,0,0,0
0,1405087931,597437,-3.44751,24.2024,8.78264,25.9764,-8.51007,-0.610422,3.62867,9.27153,0.202147,8.12572,-0.7593,36.8012,6,0,0,0
0,1405087932,598438,-3.35827,24.4236,8.90662,26.213,-8.52317,-0.603249,3.6093,9.27553,1.16991,9.21102,-1.41555,36.8506,7,0,0,0
0,1405087933,599439,-3.25887,24.5298,8.78036,26.2569,-8.50914,-0.605586,3.62966,9.27074,2.14624,8.78421,-1.6994,36.88,7,0,0,0
0,1405087934,600443,-3.22117,24.5031,8.79663,26.2328,-8.52327,-0.58518,3.60567,9.27305,1.41209,7.01772,-3.20503,36.7108,7,0,0,0
0,1405087935,601455,-3.18029,24.3046,8.854,26.0619,-8.51504,-0.601932,3.59412,9.26207,0.349095,8.2957,-1.10133,36.8285,6,0,0,0
0,1405087936,602459,-3.49814,24.5173,8.69212,26.2467,-8.51646,-0.615637,3.62883,9.2778,0.956629,7.95894,-2.22148,36.7718,6,0,0,0
0,1405087937,603472,-3.37541,24.4741,8.95037,26.277,-8.49863,-0.628732,3.64528,9.26877,0.484806,6.37677,-1.53104,36.8626,6,0,0,0
0,1405087938,604476,-3.14173,24.4972,8.90189,26.2532,-8.50259,-0.6069,3.62667,9.26364,2.95816,7.86295,-1.96991,36.8597,6,0,0,0
0,1405087939,605478,-3.48224,24.3454,8.90767,26.1567,-8.52219,-0.603748,3.64483,9.28854,0.892747,8.18313,-1.60092,36.8143,7,0,0,0
0,1405087940,606483,-3.41694,24.6395,9.17248,26.5125,-8.50885,-0.615876,3.65146,9.27971,0.418904,8.5971,-1.72553,36.7261,6,0,0,0
0,1405087941,607491,-3.44097,24.3736,9.24019,26.2925,-8.52441,-0.58169,3.6094,9.27533,1.19572,8.35938,-2.17005,36.8081,6,0,0,0
0,1405087942,608492,-3.26575,24.2868,8.93907,26.0849,-8.51532,-0.611107,3.63613,9.2793,1.28703,7.1915,-1.53095,36.888,6,0,0,0
0,1405087943,609494,-3.54035,24.45,8.9821,26.2871,-8.50971,-0.614759,3.60795,9.26339,0.811056,8.29814,-1.74384,36.8681,7,0,0,0
0,1405087944,610514,-3.51909,24.5566,8.91159,26.3596,-8.51744,-0.607639,3.61529,9.27288,1.09113,8.12048,-1.05082,36.8902,7,0,0,0
0,1405087945,611521,-3.32774,24.2987,8.63274,26.0004,-8.54461,-0.607202,3.61171,9.29642,-0.00330535,8.53921,-1.36776,36.9329,6,0,0,0
0,1405087946,612534,-3.43934,24.5061,9.34334,26.4514,-8.5276,-0.604708,3.60679,9.27871,1.92387,9.07208,-0.446321,36.9086,7,0,0,0
0,1405087947,613537,-3.2929,24.1098,8.72379,25.8502,-8.4975,-0.615642,3.62086,9.25728,1.73077,8.19169,-1.22388,36.9082,6,0,0,0
0,1405087948,614550,-3.50501,24.0418,9.07557,25.9357,-8.54263,-0.588646,3.60956,9.29258,1.28442,7.93733,-1.90513,36.9951,8,0,0,0
0,1405087949,615556,-3.38336,24.5735,8.77025,26.3101,-8.52104,-0.598138,3.62969,9.28119,1.86309,6.84844,-2.13328,36.9566,7,0,0,0
0,1405087950,616567,-3.75274,24.2398,8.87162,26.0837,-8.51775,-0.583223,3.63799,9.28047,0.279675,8.08299,-1.42483,36.9111,6,0,0,0
0,1405087951,617576,-3.36888,24.3231,8.78839,26.0806,-8.53643,-0.612513,3.63229,9.29727,0.869138,7.51556,-0.999554,36.9531,7,0,0,0
0,1405087952,618588,-3.28934,24.3707,8.88857,26.1487,-8.52716,-0.595986,3.63115,9.28724,1.55,8.8827,-1.02706,37.0458,6,0,0,0
0,1405087953,619590,-3.50484,24.3625,8.95983,26.1934,-8.52468,-0.621208,3.57762,9.26582,0.960357,8.64952,-1.74001,36.9447,7,0,0,0
0,1405087954,620595,-3.4936,24.4628,8.82235,26.2387,-8.51391,-0.603686,3.62158,9.27183,2.96697,8.11484,-1.46988,36.9766,7,0,0,0
0,1405087955,621604,-3.41699,24.3218,9.05162,26.1755,-8.52631,-0.613133,3.64594,9.29338,-0.628075,8.85543,-3.26703,37.0279,6,0,0,0
0,1405087956,622608,-3.11776,24.4916,8.97203,26.2689,-8.51076,-0.620868,3.623,9.27063,0.142339,8.21605,-1.86322,37.001,8,0,0,0
0,1405087957,623614,-3.69458,24.4396,8.77143,26.2275,-8.53189,-0.652524,3.65781,9.30584,0.750559,7.91606,-0.435822,36.9906,6,0,0,0
0,1405087958,624621,-3.527,24.4751,9.17177,26.3741,-8.53803,-0.607642,3.62508,9.29561,1.87403,7.95667,-1.41406,36.9645,7,0,0,0
0,1405087959,625630,-3.46196,24.0473,9.02479,25.9173,-8.52948,-0.610301,3.64923,9.29739,1.71054,8.55112,-2.23223,36.9974,6,0,0,0
0,1405087960,626640,-3.33514,24.2698,9.11735,26.1395,-8.52028,-0.614436,3.66317,9.29471,0.770537,8.39671,-1.21977,37.0568,7,0,0,0
0,1405087961,627642,-3.51294,24.4083,8.81719,26.1887,-8.51343,-0.590998,3.61571,9.26828,-0.25524,8.48432,-1.20518,36.9683,5,0,0,0
0,1405087962,628646,-3.60046,24.6978,8.92745,26.5075,-8.51729,-0.587371,3.59681,9.26425,1.43937,6.53377,-2.06581,37.0462,6,0,0,0
0,1405087963,629647,-3.13657,24.5708,8.62397,26.2285,-8.52528,-0.601925,3.63173,9.28613,2.05923,7.77013,-2.28045,36.9877,6,0,0,0
0,1405087964,630648,-3.5423,24.4142,8.69771,26.1582,-8.51696,-0.596992,3.613,9.27085,0.707631,8.79299,-1.86121,37.0268,7,0,0,0
0,1405087965,631657,-3.62073,24.1255,9.13005,26.0482,-8.5382,-0.637297,3.61011,9.29193,2.04171,8.26337,-2.47786,36.9883,6,0,0,0
0,1405087966,632662,-3.5545,24.3566,9.0644,26.2306,-8.52468,-0.574753,3.67199,9.29968,2.01488,8.70785,-0.850496,37.0359,7,0,0,0
0,1405087967,633665,-3.51366,24.1476,9.05098,26.0264,-8.51148,-0.616653,3.63971,9.27755,1.53445,8.31273,-2.18559,37.027,6,0,0,0
0,1405087968,634671,-3.6054,24.2347,8.99627,26.1008,-8.5011,-0.639252,3.67544,9.28366,-0.252197,7.62914,-1.69472,36.9952,6,0,0,0
0,1405087969,635675,-3.4159,24.2774,9.13212,26.1621,-8.51367,-0.606166,3.5912,9.25995,0.554917,9.50321,-1.66166,37.0508,6,0,0,0
0,1405087970,636677,-3.52569,24.4752,8.76967,26.2368,-8.51632,-0.595902,3.62462,9.27474,2.49258,8.62686,-0.984787,36.9705,7,0,0,0
0,1405087971,637684,-3.43166,24.3697,9.02227,26.2118,-8.52099,-0.624483,3.61807,9.27834,2.90943,7.78778,-1.01026,37.0097,7,0,0,0
0,1405087972,638688,-3.40508,24.5181,9.05355,26.3571,-8.53678,-0.599137,3.57249,9.27353,0.430534,9.7933,-0.945286,37.0237,6,0,0,0
0,1405087973,639698,-3.70105,24.4331,9.2244,26.3774,-8.50603,-0.629394,3.64432,9.27522,1.54136,7.77126,-2.81213,37.0677,7,0,0,0
0,1405087974,640706,-3.41883,24.2984,8.81321,26.0724,-8.51338,-0.606823,3.6216,9.27157,2.54757,8.39144,-1.34344,36.9974,6,0,0,0
0,1405087975,641712,-3.48618,24.5525,9.06536,26.4038,-8.51708,-0.592635,3.6239,9.27494,1.92854,7.56986,-1.58724,37.1466,6,0,0,0
0,1405087976,642720,-3.54637,24.7495,8.96119,26.5597,-8.56935,-0.585068,3.59524,9.31138,1.37168,7.65779,-3.24978,37.1649,7,0,0,0
0,1405087977,643727,-3.57282,24.4461,8.93562,26.2721,-8.49689,-0.619231,3.65522,9.27045,1.11448,10.1166,-1.00505,37.1904,5,0,0,0
0,1405087978,644735,-3.41804,24.7606,8.96314,26.5539,-8.52016,-0.61226,3.60698,9.27245,0.259852,9.57183,-1.61088,37.169,5,0,0,0
0,1405087979,645741,-3.20898,24.3732,8.94551,26.1605,-8.53006,-0.610462,3.6017,9.27938,0.0394984,7.55046,-1.64646,37.1526,8,0,0,0
0,1405087980,646749,-3.10043,24.3749,8.6643,26.0541,-8.53178,-0.60902,3.63256,9.29288,2.26658,8.02542,-1.3958,37.2429,6,0,0,0
0,1405087981,647756,-3.35126,24.2602,9.18491,26.1563,-8.50767,-0.609898,3.63588,9.27211,1.83995,7.81751,-2.61857,37.1447,7,0,0,0
0,1405087982,648761,-3.16742,24.4199,8.84649,26.1653,-8.52399,-0.615627,3.62891,9.28474,0.746281,8.66838,-2.00626,37.1979,7,0,0,0
0,1405087983,649765,-3.62703,24.3641,8.8253,26.1659,-8.51043,-0.610157,3.60692,9.26335,1.40518,8.29429,-1.02713,37.2558,7,0,0,0
0,1405087984,650772,-3.41056,24.4653,8.74423,26.2039,-8.50271,-0.612752,3.63068,9.26571,0.0160017,9.17831,-1.05637,37.1239,7,0,0,0
0,1405087985,651773,-3.30745,24.1582,9.16716,26.0498,-8.51098,-0.610443,3.64907,9.28036,1.65345,7.38816,-0.985534,37.1979,7,0,0,0
0,1405087986,652778,-3.24444,24.273,9.00395,26.0917,-8.51238,-0.627883,3.62321,9.27268,2.42118,8.03899,-2.67528,37.2158,7,0,0,0
0,1405087987,653779,-3.39807,24.562,8.80956,26.3144,-8.50648,-0.607993,3.59026,9.2531,0.829373,8.85706,-0.822242,37.1434,6,0,0,0
0,1405087988,654789,-3.26036,24.2411,8.8654,26.0165,-8.51824,-0.62875,3.6114,9.27351,0.331179,7.83363,-1.10826,37.2425,6,0,0,0
0,1405087989,655794,-3.50411,24.2221,9.06615,26.0995,-8.51595,-0.606972,3.61569,9.27162,2.03639,8.5871,-0.928161,37.2567,7,0,0,0
0,1405087990,656798,-3.19084,24.4759,8.80636,26.2069,-8.53598,-0.587452,3.64627,9.30071,1.54926,8.70914,-1.36659,37.2624,6,0,0,0
0,1405087991,657804,-3.30952,24.2798,8.63677,25.9818,-8.51251,-0.587917,3.5968,9.25988,0.337436,7.55438,-1.79513,37.2186,6,0,0,0
0,1405087992,658809,-3.32003,24.472,9.11194,26.3235,-8.51002,-0.61647,3.61877,9.26801,1.68831,8.64555,-1.5738,37.2398,6,0,0,0
0,1405087993,659815,-3.36607,24.5417,8.87486,26.3133,-8.53002,-0.621159,3.62836,9.29043,1.25626,8.44604,0.171335,37.2216,6,0,0,0
0,1405087994,660821,-3.40157,24.4968,8.72201,26.2247,-8.507,-0.591685,3.6385,9.27134,0.685319,7.99058,-1.3677,37.1829,6,0,0,0
0,1405087995,661826,-3.28405,24.3054,8.71596,26.029,-8.52163,-0.615214,3.62443,9.28079,0.651274,9.15786,-1.13544,37.2578,6,0,0,0
0,1405087996,662832,-3.14235,24.2347,8.71263,25.9443,-8.51496,-0.60705,3.6302,9.27639,2.68246,8.37172,-1.81548,37.274,7,0,0,0
0,1405087997,663841,-3.51567,24.4218,8.8346,26.2075,-8.5214,-0.616082,3.60124,9.27161,1.2181,7.90211,-1.90386,37.261,7,0,0,0
0,1405087998,664844,-3.38484,24.1465,8.85125,25.9395,-8.50793,-0.601098,3.64414,9.27502,1.06339,8.46208,-0.716139,37.2154,7,0,0,0
0,1405087999,665868,-3.32284,24.4184,9.00873,26.2385,-8.52969,-0.621846,3.66355,9.30397,2.1817,8.46054,-1.74863,37.3051,6,0,0,0
0,1405088000,666876,-3.18223,24.306,8.94585,26.0947,-8.51058,-0.603873,3.63678,9.27474,1.81527,7.9883,-0.433099,37.2479,6,0,0,0
0,1405088001,667880,-3.20737,24.3538,8.88641,26.1221,-8.50474,-0.626701,3.64052,9.27237,1.26819,8.0049,-1.08842,37.3062,8,0,0,0
0,1405088002,668881,-3.58639,24.3253,8.69797,26.0814,-8.49888,-0.590577,3.59538,9.24697,0.642801,8.51478,-1.62686,37.4086,6,0,0,0
0,1405088003,669884,-3.32985,24.2681,9.12792,26.1409,-8.51017,-0.534808,3.64773,9.27442,1.85924,8.02242,-3.07362,37.3346,6,0,0,0
0,1405088004,670891,-3.62939,24.3087,8.61052,26.0428,-8.5305,-0.591366,3.64417,9.29511,2.17978,8.47438,-2.95847,37.244,7,0,0,0
0,1405088005,671893,-3.4123,24.4303,8.75699,26.1757,-8.51346,-0.625089,3.62056,9.27244,0.794387,8.9945,-2.66373,37.2635,6,0,0,0
0,1405088006,672903,-3.07874,24.3073,8.93311,26.0792,-8.51286,-0.60242,3.6234,9.2715,1.76807,9.15838,-2.79272,37.3971,7,0,0,0
0,1405088007,673905,-3.42969,24.7961,8.67649,26.4932,-8.52728,-0.605018,3.58705,9.27079,-0.873405,8.45095,-1.92543,37.3828,6,0,0,0
0,1405088008,674907,-3.34635,24.3165,8.7418,26.0559,-8.5239,-0.621724,3.61288,9.27881,0.974616,8.09138,-1.10257,37.1917,7,0,0,0
0,1405088009,675915,-3.25902,24.4244,8.75081,26.1486,-8.52201,-0.617351,3.62635,9.28204,-1.54121,9.83041,-1.68853,37.3316,6,0,0,0
0,1405088010,676929,-3.31044,24.2515,8.90637,26.0465,-8.52475,-0.617926,3.61955,9.28194,1.88339,7.40951,-0.938556,37.3008,5,0,0,0
0,1405088011,677933,-3.3592,24.1233,8.98614,25.9609,-8.53179,-0.601517,3.60426,9.28137,0.283179,8.29271,-1.71777,37.335,6,0,0,0
0,1405088012,678936,-3.25898,24.2534,8.97846,26.0665,-8.54066,-0.596476,3.5656,9.27428,1.27726,8.36664,-2.22903,37.3361,7,0,0,0
0,1405088013,679942,-3.50998,24.804,8.5544,26.4714,-8.54641,-0.623486,3.60633,9.29707,1.87627,7.60979,-0.901366,37.2991,6,0,0,0
0,1405088014,680947,-3.3819,24.2672,8.9458,26.0837,-8.5225,-0.617999,3.65445,9.29354,0.253679,9.16649,-0.578195,37.475,6,0,0,0
0,1405088015,681949,-3.2473,24.1058,8.78182,25.8603,-8.51752,-0.615126,3.61772,9.2744,0.0336388,8.22154,-2.23116,37.4287,6,0,0,0
0,1405088016,682955,-3.15099,24.4315,9.6814,26.468,-8.49785,-0.622232,3.64513,9.26756,0.209232,7.83153,-2.54113,37.4227,6,0,0,0
0,1405088017,683965,-3.21428,24.486,8.67543,26.1756,-8.52836,-0.609146,3.62854,9.28818,-0.363319,9.75,-2.06222,37.4283,6,0,0,0
0,1405088018,684971,-3.20041,24.1867,8.83047,25.9464,-8.52104,-0.604241,3.62053,9.27801,1.07944,9.68586,-1.97143,37.346,5,0,0,0
0,1405088019,685981,-3.56468,24.3261,9.01799,26.1876,-8.51561,-0.62057,3.61586,9.27228,0.570203,8.49852,-1.11269,37.503,7,0,0,0
0,1405088020,686988,-3.69052,24.4069,9.18579,26.3381,-8.50452,-0.599629,3.6422,9.27103,1.62336,8.35822,-1.82938,37.357,5,0,0,0
0,1405088021,687996,-3.15548,24.3638,9.04359,26.179,-8.49768,-0.581211,3.6222,9.25574,1.68748,8.2454,-2.38193,37.3407,7,0,0,0
0,1405088023,689005,-3.31427,24.3623,9.3071,26.2893,-8.51973,-0.600728,3.63644,9.2828,2.89184,7.70684,-1.85927,37.4957,6,0,0,0
0,1405088024,690008,-3.53786,24.1728,8.69706,25.9322,-8.52273,-0.598627,3.63108,9.28332,1.07987,8.72304,-2.11307,37.3596,6,0,0,0
0,1405088025,691022,-3.44583,24.33,8.81664,26.1066,-8.48375,-0.591718,3.60306,9.23614,0.128838,8.48874,-2.6534,37.5182,6,0,0,0
0,1405088026,692031,-3.35816,24.2255,8.90328,26.0273,-8.53767,-0.594906,3.62522,9.29451,2.5081,8.77117,-1.47073,37.4228,6,0,0,0
0,1405088027,693040,-3.46846,24.2055,9.1574,26.1112,-8.48532,-0.606486,3.65186,9.25768,0.256075,7.6249,-2.33092,37.3508,7,0,0,0
0,1405088028,694041,-2.95786,24.2416,8.69538,25.9232,-8.51175,-0.60518,3.63483,9.27513,0.678354,10.4029,-1.53886,37.495,7,0,0,0
0,1405088029,695051,-3.23906,24.2316,8.82461,25.9911,-8.5373,-0.631025,3.62335,9.29583,2.51766,8.90167,-2.32202,37.5217,6,0,0,0
0,1405088030,696070,-3.50084,24.2886,8.9746,26.1292,-8.52822,-0.622199,3.64117,9.29386,1.47717,8.8775,-1.68278,37.4422,5,0,0,0
0,1405088031,697079,-3.17157,24.4655,9.05858,26.2807,-8.53873,-0.629856,3.59476,9.28595,2.82047,8.45429,-2.0152,37.5414,6,0,0,0
0,1405088032,698085,-3.54402,24.4838,8.94743,26.3073,-8.52346,-0.594981,3.64181,9.28795,2.11741,7.67167,-2.37307,37.5098,7,0,0,0
0,1405088033,699088,-3.17571,24.3387,8.75391,26.0593,-8.53022,-0.604533,3.6204,9.28641,1.96123,8.04636,-0.682465,37.5451,6,0,0,0
0,1405088034,700096,-3.55498,24.5467,8.6544,26.2693,-8.51472,-0.613501,3.64498,9.28239,1.78956,8.72574,-2.14519,37.6465,6,0,0,0
0,1405088035,701130,-3.50288,24.2587,8.90562,26.0781,-8.52776,-0.60348,3.60402,9.27771,1.8365,8.92509,-1.76323,37.5516,3,0,0,0
0,1405088036,702140,-3.09161,24.3638,9.0146,26.1614,-8.52339,-0.598853,3.62188,9.28034,0.527702,8.8154,-0.793455,37.6127,6,0,0,0
0,1405088037,703146,-3.35811,24.747,8.69899,26.4454,-8.51937,-0.604247,3.61347,9.27373,0.611351,8.13233,-0.566958,37.6488,6,0,0,0
0,1405088038,704156,-3.09553,24.2553,9.10547,26.0924,-8.5191,-0.592682,3.64409,9.2847,1.32938,7.50179,-1.53467,37.6118,6,0,0,0
0,1405088039,705160,-3.22324,24.3088,8.74484,26.0342,-8.52156,-0.601291,3.64679,9.28858,1.76072,8.11643,-0.93782,37.6035,6,0,0,0
0,1405088040,706172,-3.40646,24.1732,9.12925,26.0632,-8.50268,-0.586831,3.62682,9.26249,1.9333,7.60387,-1.42421,37.7649,6,0,0,0
0,1405088041,707173,-3.20197,24.7633,9.46164,26.702,-8.52977,-0.620244,3.62141,9.28743,1.0699,8.5342,-0.686625,37.6012,6,0,0,0
0,1405088042,708174,-3.30283,24.196,8.85563,25.9765,-8.51335,-0.642011,3.63307,9.27839,0.565633,8.26437,-1.44959,37.7686,7,0,0,0
0,1405088043,709176,-3.10549,24.2526,8.6648,25.9405,-8.53527,-0.59928,3.61977,9.29047,0.137553,9.09564,-2.78027,37.6865,7,0,0,0
0,1405088044,710178,-3.88367,23.9305,9.16015,25.9164,-8.53925,-0.610185,3.64781,9.30579,0.222472,8.76975,-1.62582,37.5965,7,0,0,0
0,1405088045,711189,-3.40658,24.6962,8.72269,26.412,-8.53145,-0.612316,3.60877,9.28352,0.636563,8.17409,-2.75258,37.7036,6,0,0,0
0,1405088046,712200,-3.44721,24.3775,8.83658,26.1578,-8.5065,-0.600316,3.62204,9.26499,1.172,8.81824,-1.89401,37.5107,7,0,0,0
0,1405088047,713211,-3.39289,24.3776,9.04989,26.2237,-8.51147,-0.614746,3.6128,9.2669,2.30875,8.73705,-1.1689,37.6796,6,0,0,0
0,1405088048,714220,-3.53948,24.3571,8.76742,26.1278,-8.51136,-0.581068,3.60791,9.26271,1.38389,7.69628,-2.41,37.8261,6,0,0,0
0,1405088049,715230,-3.3494,24.3028,9.02669,26.1405,-8.54254,-0.619979,3.63198,9.30326,0.721269,8.00542,-2.24729,37.7848,6,0,0,0
0,1405088050,716237,-3.36829,24.118,9.1764,26.0236,-8.5347,-0.602017,3.60472,9.28426,-0.711018,8.69368,-1.12535,37.7307,5,0,0,0
0,1405088051,717240,-3.31382,24.0138,8.99913,25.8578,-8.50433,-0.595534,3.62724,9.26473,-0.0940026,7.89101,-1.85428,37.7238,5,0,0,0
0,1405088052,718248,-3.63061,24.4414,8.68618,26.1918,-8.52428,-0.615964,3.64808,9.29254,1.95089,8.12183,-1.26514,37.7119,7,0,0,0
0,1405088053,719252,-3.0709,24.1011,9.14577,25.9603,-8.50223,-0.61358,3.64579,9.27126,4.12846,8.16746,-1.41077,37.7604,6,0,0,0
0,1405088054,720263,-3.10534,24.5686,8.60549,26.2166,-8.52688,-0.609127,3.59486,9.27371,1.45754,7.12751,-0.914831,37.7478,7,0,0,0
0,1405088055,721271,-3.37414,24.3191,8.6964,26.0467,-8.49847,-0.604983,3.62626,9.25958,2.50498,8.55473,-1.44472,37.8821,6,0,0,0
0,1405088056,722277,-3.33271,24.6424,8.66585,26.3335,-8.53256,-0.589573,3.6257,9.28966,1.74457,7.75119,-0.744792,37.6808,6,0,0,0
0,1405088057,723280,-3.43333,24.0461,9.08544,25.9335,-8.52906,-0.612947,3.61216,9.28269,2.04094,7.81711,-2.65582,37.7633,7,0,0,0
0,1405088058,724287,-3.46024,24.3556,8.82461,26.135,-8.50967,-0.623905,3.63578,9.27484,1.57993,9.02298,-0.881894,37.7697,7,0,0,0
0,1405088059,725288,-3.1886,24.2498,8.89894,26.0271,-8.52663,-0.574085,3.63161,9.28556,3.14586,8.84064,-2.26934,37.8376,6,0,0,0
0,1405088060,726302,-3.58159,24.12,8.94122,25.972,-8.51714,-0.604689,3.64017,9.28214,1.28409,9.61132,-1.37592,37.903,6,0,0,0
0,1405088061,727304,-3.20813,24.5401,8.77684,26.2591,-8.49962,-0.604929,3.65075,9.27025,-0.297886,7.75326,0.182324,37.7175,7,0,0,0
0,1405088062,728311,-3.44184,24.4687,8.61603,26.1686,-8.51705,-0.603037,3.62397,9.27561,0.9416,8.07632,-0.632992,37.8537,6,0,0,0
0,1405088063,729318,-3.69459,24.1714,9.02481,26.0645,-8.51918,-0.613949,3.62442,9.27845,0.289621,8.58373,-1.34552,37.864,6,0,0,0
0,1405088064,730326,-3.48412,24.4586,8.89443,26.2578,-8.5285,-0.618257,3.63965,9.29326,-0.475653,9.04782,-1.75207,37.7563,6,0,0,0
0,1405088065,731343,-3.03599,24.4876,8.98219,26.2591,-8.51933,-0.616241,3.64671,9.28747,-0.305104,7.56494,-1.87925,37.8558,6,0,0,0
0,1405088066,732349,-3.29419,24.5928,8.86448,26.3484,-8.49596,-0.593012,3.60119,9.24671,2.91048,9.34142,-0.916803,37.866,6,0,0,0
0,1405088067,733357,-3.56768,24.5293,9.00911,26.3739,-8.50926,-0.604923,3.61289,9.26426,0.691064,8.3998,-1.54448,37.9164,7,0,0,0
0,1405088068,734364,-3.47822,24.2989,9.20633,26.2162,-8.50188,-0.622411,3.6104,9.25767,1.10505,7.8829,-1.88455,37.8988,6,0,0,0
0,1405088069,735365,-3.34293,24.4057,8.83296,26.1694,-8.51273,-0.598338,3.60084,9.26233,1.60602,9.23209,-2.09382,37.8557,7,0,0,0
0,1405088070,736379,-3.2677,24.8919,9.05169,26.6874,-8.53784,-0.595093,3.59554,9.28315,0.819206,9.34232,-1.63288,37.991,6,0,0,0
0,1405088071,737386,-3.28565,24.0532,8.95868,25.8768,-8.51731,-0.621258,3.60344,9.26905,1.18771,9.19013,-2.7779,37.9972,6,0,0,0
0,1405088072,738393,-3.42748,24.3013,9.08896,26.1708,-8.51539,-0.594996,3.62267,9.27306,1.25672,7.40197,-3.44008,37.9105,7,0,0,0
0,1405088073,739397,-3.42742,24.3146,9.04194,26.1668,-8.50244,-0.616704,3.64282,9.27049,0.840823,8.38228,-2.1884,37.9476,6,0,0,0
0,1405088074,740402,-3.47473,24.4871,8.79234,26.2487,-8.52348,-0.62066,3.65116,9.29333,1.93267,8.97084,-2.60292,37.8938,7,0,0,0
0,1405088075,741409,-3.75106,24.2691,8.99218,26.1518,-8.52334,-0.591153,3.62236,9.27999,1.3058,9.19818,-2.45851,37.8992,6,0,0,0
0,1405088076,742410,-2.9361,24.5115,8.70775,26.1775,-8.53298,-0.612545,3.6326,9.29424,0.946986,8.76775,-1.83808,38.0042,6,0,0,0
0,1405088077,743416,-3.54545,24.4389,8.81647,26.2214,-8.5165,-0.615765,3.65389,9.28767,1.6165,8.76011,-1.18146,38.0619,7,0,0,0
0,1405088078,744421,-3.15553,24.4028,9.02479,26.2088,-8.52306,-0.607528,3.6326,9.2848,2.36079,8.32613,-2.00841,38.0215,6,0,0,0
0,1405088079,745429,-3.34713,24.7691,8.89733,26.5306,-8.52184,-0.629051,3.64816,9.2912,0.605845,8.99995,-1.91215,37.9918,6,0,0,0
0,1405088080,746437,-3.30466,24.4429,8.8251,26.1965,-8.52724,-0.600054,3.62888,9.28669,0.135573,8.40178,-1.49392,37.9598,7,0,0,0
0,1405088081,747442,-3.15538,24.0754,8.90634,25.8631,-8.49835,-0.604726,3.61517,9.25511,1.23219,10.0242,-0.571348,37.9778,6,0,0,0
0,1405088082,748447,-3.12745,24.2437,8.98393,26.0432,-8.53231,-0.618939,3.61503,9.28719,2.20283,8.75684,-1.72356,37.9685,6,0,0,0
0,1405088083,749453,-3.35593,24.493,9.12047,26.3506,-8.50841,-0.57916,3.59927,9.25653,2.43713,8.00162,-1.29938,38.0555,7,0,0,0
0,1405088084,750460,-3.23627,24.3606,8.65306,26.0536,-8.5482,-0.60933,3.62697,9.3058,0.928738,10.1735,-1.21827,38.084,6,0,0,0
0,1405088085,751465,-3.68446,24.663,8.78295,26.4382,-8.52087,-0.609901,3.6064,9.27272,0.437465,7.89941,-2.04496,38.0894,7,0,0,0
0,1405088086,752470,-3.53191,24.2551,8.76076,26.0295,-8.51456,-0.638477,3.64669,9.2846,1.11261,8.05957,-1.20092,38.1286,5,0,0,0
0,1405088087,753478,-3.35608,24.4,8.7121,26.1251,-8.52651,-0.608294,3.64138,9.29145,0.822466,6.59434,-1.68259,38.0558,7,0,0,0
0,1405088088,754486,-3.63052,24.6569,8.73651,26.4096,-8.53411,-0.634866,3.59073,9.28049,1.85739,7.62532,-0.296013,38.1051,7,0,0,0
0,1405088089,755494,-3.38478,24.3594,9.041,26.2026,-8.50885,-0.604662,3.59743,9.25784,1.56402,8.15949,-1.70142,38.2332,7,0,0,0
0,1405088090,756499,-3.27142,24.3024,8.83881,26.066,-8.52998,-0.6257,3.65941,9.30287,-0.0716263,9.33377,-2.14007,38.0434,6,0,0,0
0,1405088091,757506,-3.33614,24.2934,8.70481,26.0206,-8.51268,-0.610549,3.62358,9.27194,0.658486,8.87964,-1.26075,38.1563,6,0,0,0
0,1405088092,758509,-3.34815,24.3044,8.7537,26.0488,-8.52233,-0.626139,3.59055,9.26899,-0.20538,8.84019,-1.36589,38.1823,6,0,0,0
0,1405088093,759512,-3.43909,24.1644,9.13396,26.061,-8.51311,-0.61626,3.65998,9.287,0.833814,8.60435,-1.69795,38.146,7,0,0,0
0,1405088094,760520,-3.1505,24.2565,9.09192,26.0954,-8.52081,-0.630705,3.65278,9.29219,0.879383,7.30756,-1.23825,38.2505,7,0,0,0
0,1405088095,761526,-3.43601,24.6136,9.01543,26.437,-8.52832,-0.601386,3.60179,9.27722,1.7572,8.01061,-1.17802,38.1822,7,0,0,0
0,1405088096,762527,-3.46263,24.2441,8.81264,26.0275,-8.51911,-0.598055,3.63443,9.28127,1.5743,7.9464,-1.81241,38.1582,6,0,0,0
0,1405088097,763534,-3.01725,23.899,8.78918,25.6421,-8.50908,-0.609686,3.62813,9.27036,0.11887,8.1149,-1.26794,38.2169,7,0,0,0
0,1405088098,764542,-3.30805,23.9911,9.08528,25.8661,-8.52441,-0.61625,3.59657,9.27258,0.831137,8.44373,-1.53733,38.1159,7,0,0,0
0,1405088099,765548,-3.1769,24.5608,8.82911,26.2922,-8.54085,-0.602858,3.62413,9.29752,1.40302,8.74368,-1.81377,38.181,7,0,0,0
0,1405088100,766549,-3.47606,24.5546,9.08577,26.4115,-8.51941,-0.603481,3.61802,9.27549,2.86028,8.95834,-1.1379,38.2486,6,0,0,0
0,1405088101,767554,-3.31655,24.2108,8.76587,25.9616,-8.50888,-0.590746,3.62407,9.26735,2.85894,8.06994,-1.61247,38.2057,7,0,0,0
0,1405088102,768562,-3.69892,24.5989,8.78575,26.3814,-8.51239,-0.65535,3.57959,9.25763,0.637577,9.46204,-2.43463,38.1473,7,0,0,0
0,1405088103,769572,-3.60791,24.5987,8.80641,26.3755,-8.51579,-0.594825,3.65438,9.28585,1.73523,7.63853,-0.97125,38.2599,7,0,0,0
0,1405088104,770580,-3.17925,24.5519,8.60597,26.21,-8.5426,-0.620058,3.58873,9.28652,-0.631975,9.26434,-1.86298,38.3117,7,0,0,0
0,1405088105,771590,-3.49823,24.3753,9.06431,26.2403,-8.50207,-0.629487,3.62792,9.26516,1.8938,8.25163,-1.32244,38.2151,6,0,0,0
0,1405088106,772592,-3.92292,24.3694,8.88188,26.2325,-8.5232,-0.574674,3.59496,9.26817,1.02785,8.82864,-1.55832,38.2418,5,0,0,0
0,1405088107,773599,-3.64846,24.3991,9.42511,26.4095,-8.53616,-0.613461,3.64244,9.30106,2.45178,8.47558,-0.643156,38.1956,7,0,0,0
0,1405088108,774609,-3.26053,24.166,9.14642,26.0439,-8.53244,-0.616168,3.6083,9.2845,-0.53222,7.74421,-1.23215,38.1935,6,0,0,0
0,1405088109,775612,-3.32022,24.2832,9.13292,26.1554,-8.50922,-0.584352,3.68028,9.28939,0.839717,8.57702,-2.40889,38.2915,6,0,0,0
0,1405088110,776613,-3.05832,24.5773,8.74903,26.2668,-8.51683,-0.601023,3.59031,9.26217,1.98071,9.00996,-1.8499,38.2971,5,0,0,0
0,1405088111,777621,-3.53686,24.178,8.89665,26.0046,-8.51323,-0.630817,3.64398,9.28178,1.159,7.38487,-3.07461,38.2958,4,0,0,0
0,1405088112,778630,-3.35924,24.3786,8.87567,26.1606,-8.53069,-0.605384,3.62647,9.28927,1.2721,8.93476,-1.51857,38.25,6,0,0,0
0,1405088113,779632,-3.50082,24.35,8.98229,26.1889,-8.50999,-0.595248,3.6225,9.26805,1.19428,8.78345,-1.88947,38.2794,7,0,0,0
0,1405088114,780639,-3.25112,24.5346,8.8113,26.2708,-8.53049,-0.602253,3.62663,9.28894,2.27584,9.7792,-2.2692,38.2648,8,0,0,0
0,1405088115,781647,-3.26277,24.0322,9.18032,25.932,-8.50101,-0.561694,3.61804,9.25597,0.995208,8.15904,-1.12801,38.1603,7,0,0,0
0,1405088116,782650,-3.61178,24.7019,8.86236,26.4909,-8.53476,-0.62075,3.67659,9.31369,1.23965,8.18987,-1.91589,38.3164,6,0,0,0
0,1405088117,783652,-2.87572,24.2957,9.13207,26.114,-8.54976,-0.65092,3.58851,9.29513,2.62253,8.00447,-1.32795,38.378,6,0,0,0
0,1405088118,784667,-3.12716,23.8777,9.04562,25.7244,-8.50304,-0.610589,3.656,9.27582,0.755514,7.33907,-0.595658,38.3267,7,0,0,0
0,1405088119,785670,-3.45275,24.4574,8.829,26.2304,-8.50868,-0.621582,3.62404,9.26918,0.43195,8.20563,-2.48708,38.2647,7,0,0,0
0,1405088120,786683,-3.20024,24.2031,8.86016,25.9718,-8.54002,-0.58526,3.57896,9.27811,2.16174,8.42142,-2.24956,38.2512,6,0,0,0
0,1405088121,787686,-3.40987,24.8267,8.96846,26.6162,-8.51934,-0.611887,3.63386,9.28216,1.04028,8.39007,-1.84819,38.2989,6,0,0,0
0,1405088122,788693,-3.6043,24.2586,8.94009,26.1035,-8.51724,-0.5719,3.61391,9.26989,0.612949,8.35212,-0.232335,38.2415,6,0,0,0
0,1405088123,789698,-3.36584,24.4287,8.88117,26.2101,-8.50306,-0.602018,3.65531,9.27501,0.431824,8.30047,-1.51854,38.3835,7,0,0,0
0,1405088124,790704,-3.54355,24.3648,8.79687,26.1455,-8.53825,-0.569064,3.60707,9.28637,2.25178,8.03311,-1.97055,38.2773,7,0,0,0
0,1405088125,791708,-3.22681,24.5074,8.70482,26.2069,-8.51321,-0.579102,3.61866,9.26848,3.10936,7.74676,-1.43696,38.3841,6,0,0,0
0,1405088126,792710,-3.42234,24.5726,8.67201,26.2818,-8.52097,-0.626224,3.6044,9.27312,0.846533,8.25118,-0.934582,38.2582,6,0,0,0
0,1405088127,793720,-3.47835,24.5734,8.84416,26.3471,-8.53393,-0.60727,3.63347,9.2951,0.242793,8.43793,-1.59596,38.2272,5,0,0,0
0,1405088128,794721,-2.85979,24.7123,8.60919,26.3248,-8.51373,-0.605312,3.60035,9.2635,1.87977,8.6271,-1.80518,38.3369,7,0,0,0
0,1405088129,795731,-3.17451,24.4577,8.81157,26.1897,-8.52198,-0.61215,3.59395,9.26906,1.73254,8.31892,-1.93167,38.2425,6,0,0,0
0,1405088130,796741,-3.33712,24.1236,9.05692,25.9829,-8.5095,-0.626418,3.65578,9.28271,1.72794,8.81867,-0.772117,38.2466,7,0,0,0
0,1405088131,797748,-3.28761,24.0764,9.19642,25.9819,-8.52687,-0.584612,3.60271,9.27517,1.45267,7.8105,-1.77909,38.3058,6,0,0,0
0,1405088132,798754,-3.73187,24.3184,8.86168,26.1503,-8.51682,-0.596491,3.59643,9.26426,1.07041,7.99129,-1.29006,38.3142,7,0,0,0
0,1405088133,799760,-3.32402,24.497,8.93587,26.2869,-8.51116,-0.630737,3.62369,9.27194,1.89369,8.30989,-2.05232,38.3725,6,0,0,0
0,1405088134,800766,-3.44841,24.2476,8.63031,25.9676,-8.51113,-0.619105,3.6196,9.26953,1.04723,8.8034,-1.6597,38.3126,6,0,0,0
0,1405088135,801775,-3.42345,24.6478,8.61258,26.3327,-8.51319,-0.595326,3.60178,9.26292,0.381492,8.96881,-2.37566,38.2685,6,0,0,0
0,1405088136,802779,-3.26242,24.0212,9.069,25.8826,-8.5251,-0.613542,3.64911,9.29353,1.73865,7.99664,-1.59047,38.3476,6,0,0,0
0,1405088137,803785,-3.65549,24.3083,8.62146,26.0497,-8.53507,-0.591826,3.60003,9.28213,0.0313658,8.50431,-2.26849,38.3585,6,0,0,0
0,1405088138,804798,-3.42333,24.1394,8.76702,25.9093,-8.53094,-0.617356,3.62476,9.28961,0.631865,9.11157,-2.65147,38.4088,7,0,0,0
0,1405088139,805800,-3.19843,24.4564,9.04647,26.2713,-8.49841,-0.598445,3.69461,9.28607,1.77297,9.48582,-2.64095,38.3962,5,0,0,0
0,1405088140,806803,-3.48455,23.7532,8.80628,25.5716,-8.53085,-0.629013,3.59989,9.28064,0.801329,7.7126,-1.75214,38.3082,6,0,0,0
0,1405088141,807810,-3.3326,24.6334,9.20252,26.5065,-8.52072,-0.621347,3.61311,9.27595,1.74589,7.49926,-2.00932,38.3614,6,0,0,0
0,1405088142,808814,-3.25886,24.1144,8.5941,25.8066,-8.51268,-0.637799,3.63774,9.27931,1.47323,8.478,-1.77416,38.2997,7,0,0,0
0,1405088143,809817,-3.33392,24.0681,9.09611,25.9447,-8.52703,-0.641616,3.64517,9.29566,1.03135,8.74667,-1.65997,38.3791,7,0,0,0
0,1405088144,810825,-3.14458,24.266,8.85515,26.0219,-8.52439,-0.653589,3.61433,9.28202,2.44276,8.05216,-1.83553,38.3405,6,0,0,0
0,1405088145,811832,-3.12962,24.3332,8.55238,25.9815,-8.50046,-0.643308,3.68937,9.28887,0.78888,9.49024,-1.40703,38.3587,7,0,0,0
0,1405088146,812840,-3.24815,24.3952,8.81378,26.1411,-8.50442,-0.627607,3.63531,9.27009,1.42242,9.11276,-1.83163,38.2997,7,0,0,0
0,1405088147,813853,-3.26708,23.9386,8.98104,25.7758,-8.49991,-0.619874,3.68389,9.2846,1.75253,8.1447,-1.06967,38.3584,7,0,0,0
0,1405088148,814861,-3.40945,24.3229,8.51517,25.9949,-8.52246,-0.616858,3.61983,9.27987,2.2425,8.52524,-0.646263,38.4556,7,0,0,0
0,1405088149,815874,-3.52301,24.0033,8.90223,25.8422,-8.51059,-0.616213,3.64848,9.28015,3.19559,8.73858,-1.79726,38.3628,6,0,0,0
0,1405088150,816879,-3.55566,24.4033,8.43095,26.0623,-8.48144,-0.639362,3.66347,9.26092,2.44248,8.38512,-1.8854,38.4263,6,0,0,0
0,1405088151,817883,-3.20724,24.1915,8.95115,25.993,-8.5051,-0.644256,3.62797,9.26897,1.99895,7.8154,-2.29782,38.3932,6,0,0,0
0,1405088152,818886,-3.565,24.3372,8.68248,26.0844,-8.50377,-0.623753,3.65509,9.27701,3.22885,7.72597,-1.58635,38.3618,7,0,0,0
0,1405088153,819895,-3.32568,24.3716,8.9364,26.1705,-8.49715,-0.62136,3.60479,9.25106,1.96856,8.84904,-1.10354,38.437,7,0,0,0
0,1405088154,820903,-3.35423,24.2888,8.78845,26.0468,-8.52631,-0.630477,3.60308,9.27781,0.846842,9.33505,-2.55113,38.4027,6,0,0,0
0,1405088155,821912,-3.40882,24.1545,8.86259,25.9539,-8.50327,-0.652595,3.63891,9.27217,1.39157,8.73651,-1.55228,38.3952,6,0,0,0
0,1405088156,822915,-3.3624,24.2369,8.96927,26.0611,-8.52736,-0.648946,3.6057,9.28106,3.3074,8.4995,-1.38614,38.4111,6,0,0,0
0,1405088157,823921,-3.38752,24.4436,8.86832,26.2223,-8.52007,-0.612288,3.64298,9.28643,2.70354,9.59223,-1.92893,38.4436,7,0,0,0
0,1405088158,824926,-3.10166,24.4472,9.13348,26.2813,-8.49968,-0.638821,3.62725,9.26335,0.0735567,8.77673,-1.42744,38.52,6,0,0,0
0,1405088159,825931,-3.70724,24.4692,8.70794,26.2357,-8.50245,-0.614143,3.62005,9.2614,0.808699,9.12236,-2.27591,38.4521,6,0,0,0
0,1405088160,826949,-3.33245,24.2563,8.91165,26.0556,-8.51089,-0.633333,3.61893,9.27,2.01301,8.02626,-0.436564,38.5121,6,0,0,0
0,1405088161,827958,-3.52718,24.5239,8.9994,26.3601,-8.52229,-0.630068,3.6447,9.29033,1.54054,8.35458,-1.8388,38.5271,6,0,0,0
0,1405088162,828965,-3.25312,24.5876,8.69566,26.282,-8.54077,-0.615802,3.64654,9.30706,1.08835,9.65899,-2.85606,38.472,7,0,0,0
0,1405088163,829972,-3.11776,24.1252,9.07951,25.9651,-8.50183,-0.6323,3.62548,9.26418,0.556183,9.08946,-2.71846,38.421,7,0,0,0
0,1405088164,830978,-3.69879,24.0471,8.98948,25.9375,-8.50608,-0.643595,3.63588,9.27293,2.61996,8.13516,-1.94475,38.4738,7,0,0,0
0,1405088165,831985,-3.21673,24.1844,8.84695,25.9519,-8.52216,-0.629621,3.63928,9.28805,1.46668,8.45067,-1.86042,38.4521,7,0,0,0
0,1405088166,832991,-3.3656,23.817,8.99805,25.6815,-8.52895,-0.622952,3.64526,9.29618,0.6796,9.03999,-3.07093,38.56,6,0,0,0
0,1405088168,834000,-3.43598,24.4564,8.42324,26.0935,-8.52392,-0.643396,3.62008,9.28311,0.199674,9.29479,-2.48373,38.43,7,0,0,0
0,1405088169,835009,-3.13588,24.4589,8.38151,26.0446,-8.51136,-0.660925,3.61554,9.27104,1.60138,8.25538,-0.997032,38.481,6,0,0,0
0,1405088170,836013,-3.52549,24.4635,9.12307,26.3462,-8.53535,-0.615094,3.60435,9.28557,0.11947,8.68749,-1.58915,38.4593,6,0,0,0
0,1405088171,837023,-3.40745,24.1706,9.0542,26.0347,-8.51822,-0.643982,3.63917,9.28538,1.09969,8.10652,-0.889334,38.4387,6,0,0,0
0,1405088172,838032,-3.1957,24.1999,9.01311,26.0209,-8.50285,-0.609061,3.65145,9.27375,0.172449,9.6087,-2.34287,38.5148,7,0,0,0
0,1405088173,839034,-3.52501,23.9195,8.95566,25.7832,-8.50364,-0.613589,3.65544,9.27634,2.20889,8.6287,-1.72437,38.5866,7,0,0,0
0,1405088174,840035,-3.46255,24.7564,8.73488,26.4796,-8.52617,-0.620825,3.6392,9.29112,2.20817,6.96195,-0.819175,38.5513,6,0,0,0
0,1405088175,841037,-3.74891,24.2499,8.60245,26.0022,-8.51267,-0.63344,3.61896,9.27166,0.00743011,8.83847,-1.52605,38.453,6,0,0,0
0,1405088176,842056,-3.39081,24.3487,8.91117,26.1489,-8.51841,-0.630554,3.61991,9.27711,0.341973,8.47668,-0.661748,38.4923,6,0,0,0
0,1405088177,843064,-3.46502,24.5325,8.78508,26.2874,-8.53043,-0.623978,3.6365,9.29418,-0.476741,8.1259,-1.61118,38.5295,5,0,0,0
0,1405088178,844068,-3.46561,24.2819,8.87022,26.0826,-8.51566,-0.612758,3.60831,9.26887,2.03322,9.40501,-1.9176,38.5697,6,0,0,0
0,1405088179,845074,-3.5063,24.114,9.10809,26.0141,-8.53532,-0.651044,3.64016,9.30195,0.932718,7.59285,-1.18031,38.5608,6,0,0,0
0,1405088180,846078,-3.40733,24.3472,9.09844,26.214,-8.47528,-0.604062,3.64599,9.246,-0.0512068,8.4519,-1.22543,38.5047,6,0,0,0
0,1405088181,847100,-3.39971,24.2313,8.80061,26.0031,-8.52464,-0.608035,3.62697,9.28408,1.85061,7.83193,-0.995028,38.5256,6,0,0,0
0,1405088182,848107,-3.25602,24.3195,8.57383,25.9914,-8.51573,-0.629561,3.63037,9.27866,0.208652,7.85066,-1.17241,38.4318,6,0,0,0
0,1405088183,849112,-3.41564,24.5596,8.66148,26.2652,-8.50135,-0.632253,3.62526,9.26365,-0.65532,7.71276,-0.93424,38.6872,7,0,0,0
0,1405088184,850123,-3.38084,24.686,8.65566,26.3771,-8.5148,-0.644241,3.65098,9.2869,1.11408,9.01252,-0.960774,38.5458,5,0,0,0
0,1405088185,851131,-3.54649,25.002,8.43454,26.6237,-8.51858,-0.582004,3.64262,9.28297,0.279531,7.19624,-1.85017,38.6319,6,0,0,0
0,1405088186,852137,-3.51482,24.2952,8.92273,26.1195,-8.52448,-0.619595,3.63259,9.28689,1.38869,8.37686,-1.30714,38.5875,6,0,0,0
0,1405088187,853141,-3.51901,24.5633,8.71833,26.3012,-8.51342,-0.617797,3.61443,9.26952,2.33706,8.30815,-1.58179,38.5245,6,0,0,0
0,1405088188,854142,-3.08881,24.4209,9.03551,26.2214,-8.49684,-0.600164,3.60345,9.24885,-0.0665069,10.0735,-0.940774,38.5656,7,0,0,0
0,1405088189,855143,-3.32928,24.1009,8.78513,25.8673,-8.51701,-0.622867,3.65009,9.28712,1.91453,8.89956,-1.28759,38.5765,5,0,0,0
0,1405088190,856150,-3.30232,24.0824,8.84468,25.8669,-8.5247,-0.586772,3.62983,9.28389,2.52973,8.41214,-0.601879,38.5342,7,0,0,0
0,1405088191,857158,-3.10987,24.2135,8.77134,25.9403,-8.51336,-0.583033,3.64922,9.28084,0.746121,8.4158,-2.22836,38.6045,5,0,0,0
0,1405088192,858165,-3.46895,24.2456,9.04332,26.1087,-8.51224,-0.593455,3.65446,9.28254,0.943712,7.85049,-1.39726,38.5698,7,0,0,0
0,1405088193,859178,-3.35831,24.2862,8.79126,26.0458,-8.49843,-0.634454,3.63089,9.26333,2.88004,8.6102,-1.26893,38.6102,6,0,0,0
0,1405088194,860181,-3.36427,24.1978,8.9828,26.0296,-8.52964,-0.616203,3.61312,9.28381,0.648715,8.32989,-0.709755,38.5144,6,0,0,0
0,1405088195,861189,-3.05492,24.1498,8.66998,25.8402,-8.50915,-0.587658,3.60399,9.25957,1.54477,7.99005,-1.94795,38.4968,7,0,0,0
0,1405088196,862190,-3.15612,23.8663,8.66866,25.5872,-8.53148,-0.593215,3.65201,9.29921,-0.0325378,9.63199,-2.55239,38.6082,6,0,0,0
0,1405088197,863192,-3.48929,24.7552,8.89127,26.534,-8.50837,-0.616818,3.62909,9.27055,1.19124,9.08852,-1.98615,38.5662,6,0,0,0
0,1405088198,864200,-3.40732,24.2554,9.10271,26.1303,-8.50906,-0.598804,3.63904,9.27391,0.979438,9.17961,-3.27359,38.5667,7,0,0,0
0,1405088199,865204,-3.13338,24.3232,8.79584,26.0538,-8.50271,-0.636122,3.61159,9.25982,1.06984,8.34974,-1.66389,38.573,7,0,0,0
0,1405088200,866207,-3.52223,24.6343,9.15283,26.5147,-8.51129,-0.594548,3.61137,9.26485,0.276669,8.99657,-1.68551,38.731,6,0,0,0
0,1405088201,867212,-3.00091,24.2011,8.92298,25.9676,-8.52139,-0.613294,3.61749,9.27774,1.24857,8.92645,-1.50517,38.6507,6,0,0,0
0,1405088202,868213,-3.22138,23.9121,9.07778,25.7793,-8.51889,-0.564691,3.64582,9.28344,1.06631,8.64638,-2.30281,38.5954,6,0,0,0
0,1405088203,869218,-3.0413,24.2806,8.93507,26.0506,-8.50462,-0.590362,3.61134,9.25844,-0.240133,8.4793,-2.23028,38.5693,8,0,0,0
0,1405088204,870226,-3.22149,24.2124,8.92434,26.0051,-8.53237,-0.642491,3.6587,9.30592,0.828144,8.59092,-2.58501,38.5678,6,0,0,0
0,1405088205,871235,-3.32512,24.125,8.95189,25.9462,-8.51684,-0.601517,3.60897,9.26947,2.64392,7.98825,-2.01924,38.6358,6,0,0,0
0,1405088206,872236,-3.29593,24.4779,8.77722,26.2121,-8.52424,-0.613372,3.66416,9.29866,0.542922,9.92059,-2.08104,38.6112,6,0,0,0
0,1405088207,873249,-3.31129,24.6362,8.72553,26.3447,-8.52086,-0.612909,3.62552,9.28036,1.86803,9.27825,-1.32674,38.714,6,0,0,0
0,1405088208,874262,-3.25368,23.885,8.81116,25.6655,-8.52404,-0.636487,3.6198,9.28264,0.513489,8.84249,-0.76245,38.7248,7,0,0,0
0,1405088209,875265,-3.19637,24.1899,8.82915,25.9484,-8.5253,-0.624153,3.64572,9.29309,0.678843,7.93201,-3.3278,38.7125,6,0,0,0
0,1405088210,876275,-3.38636,24.4846,8.748,26.2201,-8.50735,-0.623174,3.6252,9.26852,0.460891,8.50101,-1.82962,38.6517,7,0,0,0
0,1405088211,877282,-3.3709,24.5063,9.04296,26.3381,-8.51921,-0.617179,3.61492,9.275,1.87462,8.01396,-2.50593,38.7321,5,0,0,0
0,1405088212,878294,-3.17018,24.2347,8.99277,26.043,-8.52389,-0.637474,3.60786,9.27792,1.05386,9.18699,-1.41915,38.7251,7,0,0,0
0,1405088213,879297,-3.36491,24.4075,8.71282,26.1336,-8.53815,-0.657624,3.6319,9.30179,1.25152,8.20906,-1.82663,38.8084,6,0,0,0
0,1405088214,880307,-3.09144,24.5058,9.10805,26.3258,-8.50105,-0.644864,3.62383,9.26368,1.8118,8.52573,-1.09151,38.7328,6,0,0,0
0,1405088215,881312,-3.32474,24.3597,8.4811,26.0073,-8.50117,-0.603011,3.60532,9.25374,-0.14124,6.82662,-1.60817,38.6464,7,0,0,0
0,1405088216,882315,-3.15784,24.1086,8.69277,25.8217,-8.5181,-0.632586,3.62024,9.27709,-0.237435,7.82488,-1.99512,38.7547,5,0,0,0
0,1405088217,883320,-3.63167,24.2766,9.08707,26.1748,-8.50312,-0.610255,3.59259,9.25106,0.355735,8.19855,-0.767103,38.7423,6,0,0,0
0,1405088218,884330,-3.4414,24.3344,8.87463,26.1298,-8.50745,-0.618772,3.61315,9.26361,2.00018,8.28153,-2.28965,38.73,7,0,0,0
0,1405088219,885341,-3.67251,24.0493,9.27979,26.0379,-8.50565,-0.596554,3.62317,9.26441,1.36813,7.93795,-0.994054,38.7627,7,0,0,0
0,1405088220,886349,-3.32998,24.4183,8.82718,26.1775,-8.50574,-0.618797,3.61082,9.26113,2.39598,8.32631,-1.08601,38.8738,7,0,0,0
0,1405088221,887356,-3.33615,24.1041,8.69699,25.8413,-8.52298,-0.633604,3.62127,9.28204,1.2511,9.92825,-1.43321,38.7928,3,0,0,0
0,1405088222,888363,-3.3117,24.1542,9.07252,26.0135,-8.50708,-0.594171,3.6259,9.26664,0.489461,8.26158,-1.20805,38.7878,7,0,0,0
0,1405088223,889372,-3.5368,24.0464,9.34335,26.0391,-8.53239,-0.626258,3.64213,9.29833,1.88037,9.20215,-2.35154,38.7901,6,0,0,0
0,1405088224,890379,-3.29435,24.1206,8.89963,25.9202,-8.52267,-0.638054,3.65055,9.29352,1.38741,7.93814,-1.90003,38.8142,7,0,0,0
0,1405088225,891380,-3.59587,24.6703,8.83155,26.449,-8.51621,-0.596733,3.57656,9.25601,1.16349,9.59466,-2.43507,38.8541,7,0,0,0
0,1405088226,892381,-3.48047,24.6293,8.78763,26.3806,-8.53567,-0.607293,3.62247,9.2924,0.904305,8.83519,-2.29737,38.8552,7,0,0,0
0,1405088227,893384,-3.35443,24.4923,8.73457,26.2186,-8.52173,-0.662972,3.60897,9.27815,-0.804135,8.86487,-1.79646,38.8695,6,0,0,0
0,1405088228,894393,-3.35962,24.4798,8.72811,26.2055,-8.51803,-0.602996,3.63385,9.28037,0.0244501,9.38098,-1.46898,38.8814,7,0,0,0
0,1405088229,895396,-3.24774,24.5929,8.61832,26.2609,-8.53093,-0.610497,3.62146,9.28787,1.39282,9.01739,-1.97661,38.9179,6,0,0,0
0,1405088230,896397,-3.18857,24.7159,8.71775,26.4015,-8.50935,-0.605119,3.61098,9.2636,-0.776372,8.60166,-0.748647,38.8372,7,0,0,0
0,1405088231,897405,-3.52596,24.5529,8.74839,26.3023,-8.54456,-0.65613,3.62309,9.30413,2.92862,8.61549,-1.63324,38.8774,7,0,0,0
0,1405088232,898406,-3.42034,24.5615,8.98365,26.3756,-8.51128,-0.62621,3.63269,9.27526,0.816392,10.3326,-2.2838,38.8103,5,0,0,0
0,1405088233,899414,-3.51191,23.9434,8.76778,25.739,-8.50877,-0.625476,3.65743,9.28263,0.106867,8.48676,-2.45101,38.9948,7,0,0,0
0,1405088234,900422,-3.69912,24.0857,8.98032,25.9702,-8.5161,-0.646295,3.62131,9.27661,1.35178,9.41352,-2.02633,38.8328,6,0,0,0
0,1405088235,901427,-3.4248,24.466,8.70811,26.1944,-8.51843,-0.619539,3.62473,9.27826,3.80589,8.83798,-2.05455,38.8338,7,0,0,0
0,1405088236,902438,-3.19936,24.2752,8.86586,26.0408,-8.52056,-0.641732,3.61466,9.2778,1.8046,9.36039,-1.79444,38.906,6,0,0,0
0,1405088237,903440,-3.57695,24.5532,9.34969,26.5155,-8.53584,-0.660696,3.59607,9.28594,0.815593,8.7501,-1.38327,38.9253,7,0,0,0
0,1405088238,904444,-3.50864,24.2019,8.9486,26.0407,-8.50557,-0.636038,3.64237,9.27449,0.865956,7.96205,-1.84674,38.7587,6,0,0,0
0,1405088239,905452,-3.27323,24.3689,8.98848,26.1792,-8.51617,-0.634536,3.61596,9.27378,2.21105,8.21979,-1.16719,38.8288,6,0,0,0
0,1405088240,906460,-3.09309,23.8904,9.11113,25.7552,-8.51638,-0.633869,3.62825,9.27872,1.35371,7.35315,-2.08456,38.9475,5,0,0,0
0,1405088241,907474,-3.06615,24.5901,8.96518,26.3524,-8.53433,-0.615608,3.63258,9.29566,1.91215,8.65483,-1.85906,38.8831,6,0,0,0
0,1405088242,908479,-3.36351,24.5065,9.47724,26.4897,-8.53895,-0.624558,3.59297,9.2851,0.0173925,8.65669,-2.80739,38.9673,6,0,0,0
0,1405088243,909489,-3.43072,24.292,9.59195,26.3416,-8.49778,-0.612233,3.61698,9.25579,2.81595,8.38823,-1.0997,38.8673,6,0,0,0
0,1405088244,910494,-3.35201,24.1639,8.80866,25.9369,-8.5446,-0.611217,3.61827,9.29923,1.98644,9.22795,-2.05115,38.9103,5,0,0,0
0,1405088245,911504,-3.4501,24.5937,8.83283,26.3585,-8.50011,-0.603366,3.61304,9.25581,2.26581,9.15798,-2.45716,38.935,7,0,0,0
0,1405088246,912511,-3.20003,24.2665,8.93766,26.0573,-8.53228,-0.586335,3.61756,9.28602,0.262668,8.87187,-0.833678,38.8822,7,0,0,0
0,1405088247,913514,-3.12871,24.2843,8.72169,25.992,-8.52051,-0.62152,3.63543,9.28449,-0.306032,9.04107,-2.00081,38.9052,6,0,0,0
0,1405088248,914517,-3.86238,24.6517,8.5445,26.3749,-8.52052,-0.615205,3.63683,9.28462,-0.248153,8.25852,-1.2334,38.9099,6,0,0,0
0,1405088249,915525,-3.73486,24.0495,9.03558,25.9609,-8.50991,-0.616888,3.64036,9.27639,0.928471,8.78818,-1.31664,38.8897,6,0,0,0
0,1405088250,916529,-3.24057,24.2202,8.58858,25.9014,-8.53305,-0.615638,3.62964,9.29334,1.26993,8.06751,-1.8669,38.9023,7,0,0,0
0,1405088251,917535,-3.02242,24.3793,8.86036,26.1149,-8.52032,-0.641018,3.61589,9.278,2.19132,8.69286,-1.15226,38.9399,7,0,0,0
0,1405088252,918544,-3.27846,24.1004,8.93285,25.9108,-8.53834,-0.613601,3.61622,9.29284,1.12756,8.52403,-1.85092,39.0032,6,0,0,0
0,1405088253,919549,-3.18119,24.1154,8.83597,25.8794,-8.50465,-0.628317,3.58941,9.25244,0.769459,9.06574,-1.39414,38.9692,6,0,0,0
0,1405088254,920552,-3.27671,24.118,8.76602,25.8701,-8.50312,-0.624403,3.62683,9.26536,1.23126,8.14617,-1.76617,38.9514,6,0,0,0
0,1405088255,921554,-3.54587,24.3094,8.76475,26.0833,-8.5193,-0.627902,3.63807,9.28484,1.3421,8.64345,-3.06542,38.9613,7,0,0,0
0,1405088256,922556,-3.33271,24.1878,8.80812,25.9565,-8.51929,-0.629355,3.63816,9.28497,0.596592,9.61328,-2.40684,38.9614,6,0,0,0
0,1405088257,923558,-3.3006,24.7837,8.84799,26.5219,-8.51717,-0.608518,3.63958,9.28219,-0.932028,8.79804,-1.94131,39.0688,5,0,0,0
0,1405088258,924560,-3.39586,24.6517,9.05064,26.4793,-8.52609,-0.62518,3.62191,9.28457,1.05515,10.6096,-1.11265,39.0574,6,0,0,0
0,1405088259,925574,-3.28872,24.3254,9.09004,26.1757,-8.51505,-0.639705,3.64193,9.28326,0.691103,9.91103,-1.76774,39.1021,5,0,0,0
0,1405088260,926576,-3.16596,24.1729,8.92724,25.9625,-8.52802,-0.592627,3.62927,9.28708,0.572601,8.64246,-1.07086,39.1395,6,0,0,0
0,1405088261,927587,-3.31773,24.3181,9.01599,26.147,-8.50406,-0.609221,3.621,9.26293,0.980034,8.96442,-2.28491,38.9859,7,0,0,0
0,1405088262,928595,-3.12621,24.4599,8.79687,26.181,-8.52245,-0.606046,3.65327,9.29224,2.7536,8.57922,-0.900102,39.0841,5,0,0,0
0,1405088263,929598,-3.49431,24.4273,9.22206,26.3429,-8.51057,-0.601446,3.62938,9.27167,-0.0271832,8.44488,-2.90116,39.0258,6,0,0,0
0,1405088264,930602,-3.23393,24.5441,8.89375,26.3053,-8.51886,-0.611098,3.64521,9.28612,2.38124,7.9033,-0.672364,39.0216,6,0,0,0
0,1405088265,931603,-3.44377,24.2978,9.05462,26.1578,-8.53452,-0.605965,3.62773,9.29331,1.13036,9.44224,-1.76858,38.9888,7,0,0,0
0,1405088266,932610,-3.24523,24.2408,8.9091,26.0292,-8.52864,-0.630268,3.65586,9.30055,0.400551,8.04007,-0.518537,39.1361,6,0,0,0
0,1405088267,933619,-3.51553,24.1634,8.88738,25.9849,-8.51651,-0.611963,3.63037,9.2782,1.75373,9.17012,-1.85037,39.066,7,0,0,0
0,1405088268,934623,-3.19328,24.6132,8.95382,26.3852,-8.5245,-0.594744,3.62849,9.28369,1.59961,8.89689,-2.85583,39.0448,7,0,0,0
0,1405088269,935626,-3.25447,24.1794,9.02303,26.0125,-8.51678,-0.621925,3.64278,9.28398,1.95234,9.05621,-1.29883,39.0171,7,0,0,0
