0,1405616312,utime,,bx(uT),by(uT),bz(uT),,B(uT),ax,,,,ay,,az,,,,,A,,,,,gx,,,gy,,,,gz,,,T(C),rate,,track,tilt,roll
0,1405616312,mins,,-1000,-1000,-1000,,,,,0,,,,-2000,-2000,-2000,,0,,,-2000,,-2000,-2000,-2000,,0,,0,,-180,-180
0,1405616312,maxs,,,1000,,1000,,1000,,,,1000,,,2000,,2000,,2000,2000,,2000,,,2000,,2000,,2000,,37000,360,180,180
0,1405616312,attr,,,,,F,,,,,F,,,,,F,,,,,,F,,,,,,F,,,,,F,,,,F,,,,,F,,,,,F,,,,,,F,,,,,F,,,,,F,,,,,I,F,F,F
0,1405616342,37823,0,0,0,0,0,0,0,0,0,0,2.12977e-301,10.8333,0,0,0,0
0,1405616343,38824,0,0,0,0,0,0,0,0,0,0,1.4822e-323,108.333,53,0,0,0
0,1405616344,39825,0,0,0,0,0,0,0,0,0,0,1.4822e-323,108.333,52,0,0,0
0,1405616345,40826,0,0,0,0,0,0,0,0,0,0,1.4822e-323,108.333,39,0,0,0
0,1405616346,41827,0,0,0,0,0,0,0,0,0,0,1.4822e-323,108.333,40,0,0,0
0,1405616347,42830,0,0,0,0,0,0,0,0,0,0,1.4822e-323,108.333,53,0,0,0
0,1405616348,43832,0,0,0,0,0,0,0,0,0,0,1.4822e-323,108.333,53,0,0,0
0,1405616349,44833,0,0,0,0,0,0,0,0,0,0,1.4822e-323,108.333,52,0,0,0
0,1405616350,45834,0,0,0,0,0,0,0,0,0,0,1.4822e-323,108.333,50,0,0,0
0,1405616351,46837,0,0,0,0,0,0,0,0,0,0,1.4822e-323,108.333,44,0,0,0
0,1405616352,47838,0,0,0,0,0,0,0,0,0,0,1.4822e-323,108.333,47,0,0,0
0,1405616353,48840,0,0,0,0,0,0,0,0,0,0,1.4822e-323,108.333,24,0,0,0
0,1405616354,49842,0,0,0,0,0,0,0,0,0,0,1.4822e-323,108.333,19,0,0,0
0,1405616355,50843,0,0,0,0,0,0,0,0,0,0,1.4822e-323,108.333,54,0,0,0
0,1405616356,51844,0,0,0,0,0,0,0,0,0,0,1.4822e-323,108.333,53,0,0,0
0,1405616357,52845,0,0,0,0,0,0,0,0,0,0,1.4822e-323,108.333,52,0,0,0
0,1405616358,53846,0,0,0,0,0,0,0,0,0,0,1.4822e-323,108.333,50,0,0,0
0,1405616359,54847,0,0,0,0,0,0,0,0,0,0,1.4822e-323,108.333,53,0,0,0
0,1405616360,55848,0,0,0,0,0,0,0,0,0,0,1.4822e-323,108.333,52,0,0,0
0,1405616361,56849,0,0,0,0,0,0,0,0,0,0,1.4822e-323,108.333,54,0,0,0
0,1405616362,57850,0,0,0,0,0,0,0,0,0,0,1.4822e-323,108.333,53,0,0,0
0,1405616363,58851,0,0,0,0,0,0,0,0,0,0,1.4822e-323,108.333,49,0,0,0
0,1405616364,59852,0,0,0,0,0,0,0,0,0,0,1.4822e-323,108.333,47,0,0,0
0,1405616365,60853,0,0,0,0,0,0,0,0,0,0,1.4822e-323,108.333,56,0,0,0
0,1405616366,61855,0,0,0,0,0,0,0,0,0,0,1.4822e-323,108.333,54,0,0,0
0,1405616367,62857,0,0,0,0,0,0,0,0,0,0,1.4822e-323,108.333,56,0,0,0
0,1405616368,63858,0,0,0,0,0,0,0,0,0,0,1.4822e-323,108.333,52,0,0,0
0,1405616369,64859,0,0,0,0,0,0,0,0,0,0,1.4822e-323,108.333,53,0,0,0
0,1405616370,65860,0,0,0,0,0,0,0,0,0,0,1.4822e-323,108.333,53,0,0,0
0,1405616371,66861,0,0,0,0,0,0,0,0,0,0,1.4822e-323,108.333,49,0,0,0
0,1405616372,67862,0,0,0,0,0,0,0,0,0,0,1.4822e-323,108.333,27,0,0,0
0,1405616373,68864,0,0,0,0,0,0,0,0,0,0,1.4822e-323,108.333,49,0,0,0
0,1405616374,69865,0,0,0,0,0,0,0,0,0,0,1.4822e-323,108.333,56,0,0,0
0,1405616375,70867,0,0,0,0,0,0,0,0,0,0,1.4822e-323,108.333,37,0,0,0
0,1405616376,71869,0,0,0,0,0,0,0,0,0,0,1.4822e-323,108.333,51,0,0,0
0,1405616377,72870,0,0,0,0,0,0,0,0,0,0,1.4822e-323,108.333,49,0,0,0
0,1405616378,73872,0,0,0,0,0,0,0,0,0,0,1.4822e-323,108.333,49,0,0,0
0,1405616379,74873,0,0,0,0,0,0,0,0,0,0,1.4822e-323,108.333,53,0,0,0
0,1405616380,75874,0,0,0,0,0,0,0,0,0,0,1.4822e-323,108.333,46,0,0,0
0,1405616381,76875,0,0,0,0,0,0,0,0,0,0,1.4822e-323,108.333,53,0,0,0
0,1405616382,77876,0,0,0,0,0,0,0,0,0,0,1.4822e-323,108.333,54,0,0,0
0,1405616383,78877,0,0,0,0,0,0,0,0,0,0,1.4822e-323,108.333,55,0,0,0
0,1405616384,79878,0,0,0,0,0,0,0,0,0,0,1.4822e-323,108.333,53,0,0,0
0,1405616385,80879,0,0,0,0,0,0,0,0,0,0,1.4822e-323,108.333,51,0,0,0
0,1405616386,81880,0,0,0,0,0,0,0,0,0,0,1.4822e-323,108.333,50,0,0,0
0,1405616387,82881,0,0,0,0,0,0,0,0,0,0,1.4822e-323,108.333,52,0,0,0
0,1405616388,83882,0,0,0,0,0,0,0,0,0,0,1.4822e-323,108.333,49,0,0,0
0,1405616389,84883,0,0,0,0,0,0,0,0,0,0,1.4822e-323,108.333,49,0,0,0
0,1405616390,85884,0,0,0,0,0,0,0,0,0,0,1.4822e-323,108.333,49,0,0,0
0,1405616391,86885,0,0,0,0,0,0,0,0,0,0,1.4822e-323,108.333,50,0,0,0
0,1405616392,87886,0,0,0,0,0,0,0,0,0,0,1.4822e-323,108.333,48,0,0,0
0,1405616393,88887,0,0,0,0,0,0,0,0,0,0,1.4822e-323,108.333,52,0,0,0
0,1405616394,89889,0,0,0,0,0,0,0,0,0,0,1.4822e-323,108.333,56,0,0,0
0,1405616395,90890,0,0,0,0,0,0,0,0,0,0,1.4822e-323,108.333,55,0,0,0
0,1405616396,91891,0,0,0,0,0,0,0,0,0,0,1.4822e-323,108.333,53,0,0,0
0,1405616397,92892,0,0,0,0,0,0,0,0,0,0,1.4822e-323,108.333,52,0,0,0
0,1405616398,93893,0,0,0,0,0,0,0,0,0,0,1.4822e-323,108.333,52,0,0,0
0,1405616399,94894,0,0,0,0,0,0,0,0,0,0,1.4822e-323,108.333,50,0,0,0
0,1405616400,95896,0,0,0,0,0,0,0,0,0,0,1.4822e-323,108.333,52,0,0,0
0,1405616401,96897,0,0,0,0,0,0,0,0,0,0,1.4822e-323,108.333,54,0,0,0
0,1405616402,97898,0,0,0,0,0,0,0,0,0,0,1.4822e-323,108.333,55,0,0,0
0,1405616403,98899,0,0,0,0,0,0,0,0,0,0,1.4822e-323,108.333,55,0,0,0
0,1405616404,99900,0,0,0,0,0,0,0,0,0,0,1.4822e-323,108.333,50,0,0,0
0,1405616405,100901,0,0,0,0,0,0,0,0,0,0,1.4822e-323,108.333,48,0,0,0
0,1405616406,101902,0,0,0,0,0,0,0,0,0,0,1.4822e-323,108.333,51,0,0,0
0,1405616407,102903,0,0,0,0,0,0,0,0,0,0,1.4822e-323,108.333,51,0,0,0
0,1405616408,103904,0,0,0,0,0,0,0,0,0,0,1.4822e-323,108.333,54,0,0,0
0,1405616409,104905,0,0,0,0,0,0,0,0,0,0,1.4822e-323,108.333,53,0,0,0
0,1405616410,105906,0,0,0,0,0,0,0,0,0,0,1.4822e-323,108.333,55,0,0,0
0,1405616411,106907,0,0,0,0,0,0,0,0,0,0,1.4822e-323,108.333,52,0,0,0
0,1405616412,107908,0,0,0,0,0,0,0,0,0,0,1.4822e-323,108.333,52,0,0,0
0,1405616413,108909,0,0,0,0,0,0,0,0,0,0,1.4822e-323,108.333,49,0,0,0
0,1405616414,109911,0,0,0,0,0,0,0,0,0,0,1.4822e-323,108.333,50,0,0,0
0,1405616415,110912,0,0,0,0,0,0,0,0,0,0,1.4822e-323,108.333,51,0,0,0
0,1405616416,111913,0,0,0,0,0,0,0,0,0,0,1.4822e-323,108.333,53,0,0,0
0,1405616417,112914,0,0,0,0,0,0,0,0,0,0,1.4822e-323,108.333,51,0,0,0
0,1405616418,113915,0,0,0,0,0,0,0,0,0,0,1.4822e-323,108.333,55,0,0,0
0,1405616419,114916,0,0,0,0,0,0,0,0,0,0,1.4822e-323,108.333,51,0,0,0
0,1405616420,115917,0,0,0,0,0,0,0,0,0,0,1.4822e-323,108.333,51,0,0,0
0,1405616421,116918,0,0,0,0,0,0,0,0,0,0,1.4822e-323,108.333,52,0,0,0
0,1405616422,117919,0,0,0,0,0,0,0,0,0,0,1.4822e-323,108.333,56,0,0,0
0,1405616423,118920,0,0,0,0,0,0,0,0,0,0,1.4822e-323,108.333,53,0,0,0
0,1405616424,119921,0,0,0,0,0,0,0,0,0,0,1.4822e-323,108.333,51,0,0,0
0,1405616425,120922,0,0,0,0,0,0,0,0,0,0,1.4822e-323,108.333,53,0,0,0
0,1405616426,121923,0,0,0,0,0,0,0,0,0,0,1.4822e-323,108.333,52,0,0,0
0,1405616427,122924,0,0,0,0,0,0,0,0,0,0,1.4822e-323,108.333,46,0,0,0
0,1405616428,123925,0,0,0,0,0,0,0,0,0,0,1.4822e-323,108.333,46,0,0,0
0,1405616429,124926,0,0,0,0,0,0,0,0,0,0,1.4822e-323,108.333,52,0,0,0
0,1405616430,125927,0,0,0,0,0,0,0,0,0,0,1.4822e-323,108.333,30,0,0,0
0,1405616431,126928,0,0,0,0,0,0,0,0,0,0,1.4822e-323,108.333,54,0,0,0
0,1405616432,127929,0,0,0,0,0,0,0,0,0,0,1.4822e-323,108.333,52,0,0,0
0,1405616433,128930,0,0,0,0,0,0,0,0,0,0,1.4822e-323,108.333,34,0,0,0
0,1405616434,129931,0,0,0,0,0,0,0,0,0,0,1.4822e-323,108.333,51,0,0,0
0,1405616435,130932,0,0,0,0,0,0,0,0,0,0,1.4822e-323,108.333,52,0,0,0
0,1405616436,131933,0,0,0,0,0,0,0,0,0,0,1.4822e-323,108.333,52,0,0,0
0,1405616437,132934,0,0,0,0,0,0,0,0,0,0,1.4822e-323,108.333,52,0,0,0
0,1405616438,133936,0,0,0,0,0,0,0,0,0,0,1.4822e-323,108.333,55,0,0,0
0,1405616439,134937,0,0,0,0,0,0,0,0,0,0,1.4822e-323,108.333,55,0,0,0
0,1405616440,135938,0,0,0,0,0,0,0,0,0,0,1.4822e-323,108.333,55,0,0,0
0,1405616441,136939,0,0,0,0,0,0,0,0,0,0,1.4822e-323,108.333,50,0,0,0
0,1405616442,137942,0,0,0,0,0,0,0,0,0,0,1.4822e-323,108.333,49,0,0,0
0,1405616443,138944,0,0,0,0,0,0,0,0,0,0,1.4822e-323,108.333,49,0,0,0
0,1405616444,139946,0,0,0,0,0,0,0,0,0,0,1.4822e-323,108.333,52,0,0,0
0,1405616445,140947,0,0,0,0,0,0,0,0,0,0,1.4822e-323,108.333,52,0,0,0
0,1405616446,141948,0,0,0,0,0,0,0,0,0,0,1.4822e-323,108.333,55,0,0,0
0,1405616447,142949,0,0,0,0,0,0,0,0,0,0,1.4822e-323,108.333,53,0,0,0
0,1405616448,143950,0,0,0,0,0,0,0,0,0,0,1.4822e-323,108.333,53,0,0,0
0,1405616449,144951,0,0,0,0,0,0,0,0,0,0,1.4822e-323,108.333,53,0,0,0
0,1405616450,145953,0,0,0,0,0,0,0,0,0,0,1.4822e-323,108.333,52,0,0,0
0,1405616451,146954,0,0,0,0,0,0,0,0,0,0,1.4822e-323,108.333,55,0,0,0
0,1405616452,147955,0,0,0,0,0,0,0,0,0,0,1.4822e-323,108.333,53,0,0,0
0,1405616453,148956,0,0,0,0,0,0,0,0,0,0,1.4822e-323,108.333,54,0,0,0
0,1405616454,149958,0,0,0,0,0,0,0,0,0,0,1.4822e-323,108.333,54,0,0,0
0,1405616455,150960,0,0,0,0,0,0,0,0,0,0,1.4822e-323,108.333,52,0,0,0
0,1405616456,151961,0,0,0,0,0,0,0,0,0,0,1.4822e-323,108.333,49,0,0,0
0,1405616457,152963,0,0,0,0,0,0,0,0,0,0,1.4822e-323,108.333,52,0,0,0
0,1405616458,153964,0,0,0,0,0,0,0,0,0,0,1.4822e-323,108.333,51,0,0,0
0,1405616459,154965,0,0,0,0,0,0,0,0,0,0,1.4822e-323,108.333,56,0,0,0
0,1405616460,155966,0,0,0,0,0,0,0,0,0,0,1.4822e-323,108.333,50,0,0,0
0,1405616461,156967,0,0,0,0,0,0,0,0,0,0,1.4822e-323,108.333,53,0,0,0
0,1405616462,157968,0,0,0,0,0,0,0,0,0,0,1.4822e-323,108.333,53,0,0,0
0,1405616463,158969,0,0,0,0,0,0,0,0,0,0,1.4822e-323,108.333,53,0,0,0
0,1405616464,159970,0,0,0,0,0,0,0,0,0,0,1.4822e-323,108.333,49,0,0,0
0,1405616465,160971,0,0,0,0,0,0,0,0,0,0,1.4822e-323,108.333,52,0,0,0
0,1405616466,161972,0,0,0,0,0,0,0,0,0,0,1.4822e-323,108.333,50,0,0,0
0,1405616467,162973,0,0,0,0,0,0,0,0,0,0,1.4822e-323,108.333,51,0,0,0
0,1405616468,163974,0,0,0,0,0,0,0,0,0,0,1.4822e-323,108.333,48,0,0,0
0,1405616469,164975,0,0,0,0,0,0,0,0,0,0,1.4822e-323,108.333,50,0,0,0
0,1405616470,165977,0,0,0,0,0,0,0,0,0,0,1.4822e-323,108.333,47,0,0,0
0,1405616471,166978,0,0,0,0,0,0,0,0,0,0,1.4822e-323,108.333,50,0,0,0
0,1405616472,167979,0,0,0,0,0,0,0,0,0,0,1.4822e-323,108.333,51,0,0,0
0,1405616473,168980,0,0,0,0,0,0,0,0,0,0,1.4822e-323,108.333,53,0,0,0
0,1405616474,169981,0,0,0,0,0,0,0,0,0,0,1.4822e-323,108.333,55,0,0,0
0,1405616475,170983,0,0,0,0,0,0,0,0,0,0,1.4822e-323,108.333,55,0,0,0
0,1405616476,171984,0,0,0,0,0,0,0,0,0,0,1.4822e-323,108.333,52,0,0,0
0,1405616477,172987,0,0,0,0,0,0,0,0,0,0,1.4822e-323,108.333,51,0,0,0
0,1405616478,173989,0,0,0,0,0,0,0,0,0,0,1.4822e-323,108.333,50,0,0,0
0,1405616479,174990,0,0,0,0,0,0,0,0,0,0,1.4822e-323,108.333,52,0,0,0
0,1405616480,175991,0,0,0,0,0,0,0,0,0,0,1.4822e-323,108.333,56,0,0,0
0,1405616481,176992,0,0,0,0,0,0,0,0,0,0,1.4822e-323,108.333,56,0,0,0
0,1405616482,177993,0,0,0,0,0,0,0,0,0,0,1.4822e-323,108.333,52,0,0,0
0,1405616483,178994,0,0,0,0,0,0,0,0,0,0,1.4822e-323,108.333,49,0,0,0
0,1405616484,179995,0,0,0,0,0,0,0,0,0,0,1.4822e-323,108.333,51,0,0,0
0,1405616485,180996,0,0,0,0,0,0,0,0,0,0,1.4822e-323,108.333,51,0,0,0
0,1405616486,181997,0,0,0,0,0,0,0,0,0,0,1.4822e-323,108.333,54,0,0,0
0,1405616487,182998,0,0,0,0,0,0,0,0,0,0,1.4822e-323,108.333,53,0,0,0
0,1405616488,183999,0,0,0,0,0,0,0,0,0,0,1.4822e-323,108.333,55,0,0,0
0,1405616490,185000,0,0,0,0,0,0,0,0,0,0,1.4822e-323,108.333,55,0,0,0
0,1405616491,186002,0,0,0,0,0,0,0,0,0,0,1.4822e-323,108.333,55,0,0,0
0,1405616492,187003,0,0,0,0,0,0,0,0,0,0,1.4822e-323,108.333,51,0,0,0
0,1405616493,188005,0,0,0,0,0,0,0,0,0,0,1.4822e-323,108.333,51,0,0,0
0,1405616494,189006,0,0,0,0,0,0,0,0,0,0,1.4822e-323,108.333,55,0,0,0
0,1405616495,190007,0,0,0,0,0,0,0,0,0,0,1.4822e-323,108.333,52,0,0,0
0,1405616496,191008,0,0,0,0,0,0,0,0,0,0,1.4822e-323,108.333,53,0,0,0
0,1405616497,192009,0,0,0,0,0,0,0,0,0,0,1.4822e-323,108.333,53,0,0,0
0,1405616498,193011,0,0,0,0,0,0,0,0,0,0,1.4822e-323,108.333,53,0,0,0
0,1405616499,194012,0,0,0,0,0,0,0,0,0,0,1.4822e-323,108.333,50,0,0,0
0,1405616500,195013,0,0,0,0,0,0,0,0,0,0,1.4822e-323,108.333,50,0,0,0
0,1405616501,196014,0,0,0,0,0,0,0,0,0,0,1.4822e-323,108.333,56,0,0,0
0,1405616502,197018,0,0,0,0,0,0,0,0,0,0,1.4822e-323,108.333,56,0,0,0
0,1405616503,198019,0,0,0,0,0,0,0,0,0,0,1.4822e-323,108.333,56,0,0,0
0,1405616504,199020,0,0,0,0,0,0,0,0,0,0,1.4822e-323,108.333,52,0,0,0
0,1405616505,200021,0,0,0,0,0,0,0,0,0,0,1.4822e-323,108.333,51,0,0,0
0,1405616506,201022,0,0,0,0,0,0,0,0,0,0,1.4822e-323,108.333,49,0,0,0
0,1405616507,202023,0,0,0,0,0,0,0,0,0,0,1.4822e-323,108.333,46,0,0,0
0,1405616508,203024,0,0,0,0,0,0,0,0,0,0,1.4822e-323,108.333,45,0,0,0
0,1405616509,204026,0,0,0,0,0,0,0,0,0,0,1.4822e-323,108.333,56,0,0,0
0,1405616510,205027,0,0,0,0,0,0,0,0,0,0,1.4822e-323,108.333,54,0,0,0
0,1405616511,206028,0,0,0,0,0,0,0,0,0,0,1.4822e-323,108.333,55,0,0,0
0,1405616512,207029,0,0,0,0,0,0,0,0,0,0,1.4822e-323,108.333,47,0,0,0
0,1405616513,208030,0,0,0,0,0,0,0,0,0,0,1.4822e-323,108.333,51,0,0,0
0,1405616514,209032,0,0,0,0,0,0,0,0,0,0,1.4822e-323,108.333,53,0,0,0
0,1405616515,210033,0,0,0,0,0,0,0,0,0,0,1.4822e-323,108.333,53,0,0,0
0,1405616516,211035,0,0,0,0,0,0,0,0,0,0,1.4822e-323,108.333,53,0,0,0
0,1405616517,212036,0,0,0,0,0,0,0,0,0,0,1.4822e-323,108.333,52,0,0,0
0,1405616518,213037,0,0,0,0,0,0,0,0,0,0,1.4822e-323,108.333,53,0,0,0
0,1405616519,214038,0,0,0,0,0,0,0,0,0,0,1.4822e-323,108.333,55,0,0,0
0,1405616520,215039,0,0,0,0,0,0,0,0,0,0,1.4822e-323,108.333,48,0,0,0
0,1405616521,216042,0,0,0,0,0,0,0,0,0,0,1.4822e-323,108.333,51,0,0,0
0,1405616522,217043,0,0,0,0,0,0,0,0,0,0,1.4822e-323,108.333,50,0,0,0
0,1405616523,218047,0,0,0,0,0,0,0,0,0,0,1.4822e-323,108.333,53,0,0,0
0,1405616524,219049,0,0,0,0,0,0,0,0,0,0,1.4822e-323,108.333,50,0,0,0
0,1405616525,220050,0,0,0,0,0,0,0,0,0,0,1.4822e-323,108.333,50,0,0,0
0,1405616526,221051,0,0,0,0,0,0,0,0,0,0,1.4822e-323,108.333,50,0,0,0
0,1405616527,222052,0,0,0,0,0,0,0,0,0,0,1.4822e-323,108.333,50,0,0,0
0,1405616528,223053,0,0,0,0,0,0,0,0,0,0,1.4822e-323,108.333,47,0,0,0
0,1405616529,224054,0,0,0,0,0,0,0,0,0,0,1.4822e-323,108.333,51,0,0,0
0,1405616530,225055,0,0,0,0,0,0,0,0,0,0,1.4822e-323,108.333,52,0,0,0
0,1405616531,226056,0,0,0,0,0,0,0,0,0,0,1.4822e-323,108.333,54,0,0,0
0,1405616532,227058,0,0,0,0,0,0,0,0,0,0,1.4822e-323,108.333,53,0,0,0
0,1405616533,228059,0,0,0,0,0,0,0,0,0,0,1.4822e-323,108.333,53,0,0,0
0,1405616534,229060,0,0,0,0,0,0,0,0,0,0,1.4822e-323,108.333,50,0,0,0
0,1405616535,230061,0,0,0,0,0,0,0,0,0,0,1.4822e-323,108.333,51,0,0,0
0,1405616536,231062,0,0,0,0,0,0,0,0,0,0,1.4822e-323,108.333,47,0,0,0
0,1405616537,232063,0,0,0,0,0,0,0,0,0,0,1.4822e-323,108.333,50,0,0,0
0,1405616538,233065,0,0,0,0,0,0,0,0,0,0,1.4822e-323,108.333,53,0,0,0
0,1405616539,234066,0,0,0,0,0,0,0,0,0,0,1.4822e-323,108.333,53,0,0,0
0,1405616540,235067,0,0,0,0,0,0,0,0,0,0,1.4822e-323,108.333,49,0,0,0
0,1405616541,236068,0,0,0,0,0,0,0,0,0,0,1.4822e-323,108.333,51,0,0,0
0,1405616542,237069,0,0,0,0,0,0,0,0,0,0,1.4822e-323,108.333,49,0,0,0
0,1405616543,238070,0,0,0,0,0,0,0,0,0,0,1.4822e-323,108.333,54,0,0,0
0,1405616544,239071,0,0,0,0,0,0,0,0,0,0,1.4822e-323,108.333,48,0,0,0
0,1405616545,240072,0,0,0,0,0,0,0,0,0,0,1.4822e-323,108.333,48,0,0,0
0,1405616546,241073,0,0,0,0,0,0,0,0,0,0,1.4822e-323,108.333,52,0,0,0
0,1405616547,242075,0,0,0,0,0,0,0,0,0,0,1.4822e-323,108.333,50,0,0,0
0,1405616548,243077,0,0,0,0,0,0,0,0,0,0,1.4822e-323,108.333,51,0,0,0
0,1405616549,244078,0,0,0,0,0,0,0,0,0,0,1.4822e-323,108.333,52,0,0,0
0,1405616550,245079,0,0,0,0,0,0,0,0,0,0,1.4822e-323,108.333,49,0,0,0
0,1405616551,246080,0,0,0,0,0,0,0,0,0,0,1.4822e-323,108.333,49,0,0,0
0,1405616552,247081,0,0,0,0,0,0,0,0,0,0,1.4822e-323,108.333,55,0,0,0
0,1405616553,248082,0,0,0,0,0,0,0,0,0,0,1.4822e-323,108.333,52,0,0,0
0,1405616554,249083,0,0,0,0,0,0,0,0,0,0,1.4822e-323,108.333,53,0,0,0
0,1405616555,250084,0,0,0,0,0,0,0,0,0,0,1.4822e-323,108.333,46,0,0,0
0,1405616556,251085,0,0,0,0,0,0,0,0,0,0,1.4822e-323,108.333,52,0,0,0
0,1405616557,252086,0,0,0,0,0,0,0,0,0,0,1.4822e-323,108.333,49,0,0,0
0,1405616558,253087,0,0,0,0,0,0,0,0,0,0,1.4822e-323,108.333,52,0,0,0
0,1405616559,254316,0,0,0,0,0,0,0,0,0,0,1.4822e-323,108.333,26,0,0,0
0,1405616560,255318,0,0,0,0,0,0,0,0,0,0,1.4822e-323,108.333,50,0,0,0
0,1405616561,256319,0,0,0,0,0,0,0,0,0,0,1.4822e-323,108.333,48,0,0,0
0,1405616562,257321,0,0,0,0,0,0,0,0,0,0,1.4822e-323,108.333,47,0,0,0
0,1405616563,258322,0,0,0,0,0,0,0,0,0,0,1.4822e-323,108.333,45,0,0,0
0,1405616564,259323,0,0,0,0,0,0,0,0,0,0,1.4822e-323,108.333,55,0,0,0
0,1405616565,260324,0,0,0,0,0,0,0,0,0,0,1.4822e-323,108.333,54,0,0,0
0,1405616566,261326,0,0,0,0,0,0,0,0,0,0,1.4822e-323,108.333,53,0,0,0
0,1405616567,262327,0,0,0,0,0,0,0,0,0,0,1.4822e-323,108.333,51,0,0,0
0,1405616568,263330,0,0,0,0,0,0,0,0,0,0,1.4822e-323,108.333,55,0,0,0
0,1405616569,264331,0,0,0,0,0,0,0,0,0,0,1.4822e-323,108.333,55,0,0,0
0,1405616570,265332,0,0,0,0,0,0,0,0,0,0,1.4822e-323,108.333,50,0,0,0
0,1405616571,266333,0,0,0,0,0,0,0,0,0,0,1.4822e-323,108.333,52,0,0,0
0,1405616572,267334,0,0,0,0,0,0,0,0,0,0,1.4822e-323,108.333,51,0,0,0
0,1405616573,268335,0,0,0,0,0,0,0,0,0,0,1.4822e-323,108.333,53,0,0,0
0,1405616574,269336,0,0,0,0,0,0,0,0,0,0,1.4822e-323,108.333,52,0,0,0
0,1405616575,270337,0,0,0,0,0,0,0,0,0,0,1.4822e-323,108.333,52,0,0,0
0,1405616576,271338,0,0,0,0,0,0,0,0,0,0,1.4822e-323,108.333,51,0,0,0
0,1405616577,272339,0,0,0,0,0,0,0,0,0,0,1.4822e-323,108.333,51,0,0,0
0,1405616578,273340,0,0,0,0,0,0,0,0,0,0,1.4822e-323,108.333,50,0,0,0
0,1405616579,274343,0,0,0,0,0,0,0,0,0,0,1.4822e-323,108.333,52,0,0,0
0,1405616580,275344,0,0,0,0,0,0,0,0,0,0,1.4822e-323,108.333,52,0,0,0
0,1405616581,276345,0,0,0,0,0,0,0,0,0,0,1.4822e-323,108.333,52,0,0,0
0,1405616582,277346,0,0,0,0,0,0,0,0,0,0,1.4822e-323,108.333,49,0,0,0
0,1405616583,278347,0,0,0,0,0,0,0,0,0,0,1.4822e-323,108.333,49,0,0,0
0,1405616584,279348,0,0,0,0,0,0,0,0,0,0,1.4822e-323,108.333,50,0,0,0
0,1405616585,280349,0,0,0,0,0,0,0,0,0,0,1.4822e-323,108.333,53,0,0,0
0,1405616586,281355,0,0,0,0,0,0,0,0,0,0,1.4822e-323,108.333,55,0,0,0
0,1405616587,282356,0,0,0,0,0,0,0,0,0,0,1.4822e-323,108.333,51,0,0,0
0,1405616588,283358,0,0,0,0,0,0,0,0,0,0,1.4822e-323,108.333,48,0,0,0
0,1405616589,284359,0,0,0,0,0,0,0,0,0,0,1.4822e-323,108.333,52,0,0,0
0,1405616590,285360,0,0,0,0,0,0,0,0,0,0,1.4822e-323,108.333,47,0,0,0
0,1405616591,286361,0,0,0,0,0,0,0,0,0,0,1.4822e-323,108.333,48,0,0,0
0,1405616592,287362,0,0,0,0,0,0,0,0,0,0,1.4822e-323,108.333,46,0,0,0
0,1405616593,288363,0,0,0,0,0,0,0,0,0,0,1.4822e-323,108.333,51,0,0,0
0,1405616594,289364,0,0,0,0,0,0,0,0,0,0,1.4822e-323,108.333,47,0,0,0
0,1405616595,290367,0,0,0,0,0,0,0,0,0,0,1.4822e-323,108.333,49,0,0,0
0,1405616596,291368,0,0,0,0,0,0,0,0,0,0,1.4822e-323,108.333,48,0,0,0
0,1405616597,292369,0,0,0,0,0,0,0,0,0,0,1.4822e-323,108.333,52,0,0,0
0,1405616598,293370,0,0,0,0,0,0,0,0,0,0,1.4822e-323,108.333,48,0,0,0
0,1405616599,294371,0,0,0,0,0,0,0,0,0,0,1.4822e-323,108.333,50,0,0,0
0,1405616600,295372,0,0,0,0,0,0,0,0,0,0,1.4822e-323,108.333,47,0,0,0
0,1405616601,296373,0,0,0,0,0,0,0,0,0,0,1.4822e-323,108.333,54,0,0,0
0,1405616602,297374,0,0,0,0,0,0,0,0,0,0,1.4822e-323,108.333,50,0,0,0
0,1405616603,298375,0,0,0,0,0,0,0,0,0,0,1.4822e-323,108.333,51,0,0,0
0,1405616604,299376,0,0,0,0,0,0,0,0,0,0,1.4822e-323,108.333,52,0,0,0
0,1405616605,300377,0,0,0,0,0,0,0,0,0,0,1.4822e-323,108.333,52,0,0,0
0,1405616606,301378,0,0,0,0,0,0,0,0,0,0,1.4822e-323,108.333,51,0,0,0
0,1405616607,302379,0,0,0,0,0,0,0,0,0,0,1.4822e-323,108.333,52,0,0,0
0,1405616608,303382,0,0,0,0,0,0,0,0,0,0,1.4822e-323,108.333,52,0,0,0
0,1405616609,304383,0,0,0,0,0,0,0,0,0,0,1.4822e-323,108.333,54,0,0,0
0,1405616610,305384,0,0,0,0,0,0,0,0,0,0,1.4822e-323,108.333,52,0,0,0
0,1405616611,306385,0,0,0,0,0,0,0,0,0,0,1.4822e-323,108.333,51,0,0,0
0,1405616612,307386,0,0,0,0,0,0,0,0,0,0,1.4822e-323,108.333,52,0,0,0
0,1405616613,308387,0,0,0,0,0,0,0,0,0,0,1.4822e-323,108.333,52,0,0,0
0,1405616614,309388,0,0,0,0,0,0,0,0,0,0,1.4822e-323,108.333,52,0,0,0
0,1405616615,310389,0,0,0,0,0,0,0,0,0,0,1.4822e-323,108.333,49,0,0,0
0,1405616616,311390,0,0,0,0,0,0,0,0,0,0,1.4822e-323,108.333,52,0,0,0
0,1405616617,312392,0,0,0,0,0,0,0,0,0,0,1.4822e-323,108.333,48,0,0,0
0,1405616618,313393,0,0,0,0,0,0,0,0,0,0,1.4822e-323,108.333,49,0,0,0
0,1405616619,314394,0,0,0,0,0,0,0,0,0,0,1.4822e-323,108.333,48,0,0,0
0,1405616620,315395,0,0,0,0,0,0,0,0,0,0,1.4822e-323,108.333,51,0,0,0
0,1405616621,316396,0,0,0,0,0,0,0,0,0,0,1.4822e-323,108.333,55,0,0,0
0,1405616622,317397,0,0,0,0,0,0,0,0,0,0,1.4822e-323,108.333,55,0,0,0
0,1405616623,318398,0,0,0,0,0,0,0,0,0,0,1.4822e-323,108.333,52,0,0,0
0,1405616624,319399,0,0,0,0,0,0,0,0,0,0,1.4822e-323,108.333,52,0,0,0
0,1405616625,320400,0,0,0,0,0,0,0,0,0,0,1.4822e-323,108.333,53,0,0,0
0,1405616626,321401,0,0,0,0,0,0,0,0,0,0,1.4822e-323,108.333,50,0,0,0
0,1405616627,322402,0,0,0,0,0,0,0,0,0,0,1.4822e-323,108.333,49,0,0,0
0,1405616628,323403,0,0,0,0,0,0,0,0,0,0,1.4822e-323,108.333,52,0,0,0
0,1405616629,324404,0,0,0,0,0,0,0,0,0,0,1.4822e-323,108.333,53,0,0,0
0,1405616630,325405,0,0,0,0,0,0,0,0,0,0,1.4822e-323,108.333,54,0,0,0
0,1405616631,326406,0,0,0,0,0,0,0,0,0,0,1.4822e-323,108.333,50,0,0,0
0,1405616632,327410,0,0,0,0,0,0,0,0,0,0,1.4822e-323,108.333,43,0,0,0
0,1405616633,328411,0,0,0,0,0,0,0,0,0,0,1.4822e-323,108.333,45,0,0,0
0,1405616634,329412,0,0,0,0,0,0,0,0,0,0,1.4822e-323,108.333,45,0,0,0
0,1405616635,330413,0,0,0,0,0,0,0,0,0,0,1.4822e-323,108.333,49,0,0,0
0,1405616636,331414,0,0,0,0,0,0,0,0,0,0,1.4822e-323,108.333,50,0,0,0
0,1405616637,332415,0,0,0,0,0,0,0,0,0,0,1.4822e-323,108.333,53,0,0,0
0,1405616638,333416,0,0,0,0,0,0,0,0,0,0,1.4822e-323,108.333,56,0,0,0
0,1405616639,334417,0,0,0,0,0,0,0,0,0,0,1.4822e-323,108.333,52,0,0,0
0,1405616640,335418,0,0,0,0,0,0,0,0,0,0,1.4822e-323,108.333,49,0,0,0
0,1405616641,336419,0,0,0,0,0,0,0,0,0,0,1.4822e-323,108.333,49,0,0,0
0,1405616642,337420,0,0,0,0,0,0,0,0,0,0,1.4822e-323,108.333,53,0,0,0
0,1405616643,338421,0,0,0,0,0,0,0,0,0,0,1.4822e-323,108.333,48,0,0,0
0,1405616644,339422,0,0,0,0,0,0,0,0,0,0,1.4822e-323,108.333,53,0,0,0
0,1405616645,340423,0,0,0,0,0,0,0,0,0,0,1.4822e-323,108.333,47,0,0,0
0,1405616646,341424,0,0,0,0,0,0,0,0,0,0,1.4822e-323,108.333,51,0,0,0
0,1405616647,342425,0,0,0,0,0,0,0,0,0,0,1.4822e-323,108.333,48,0,0,0
0,1405616648,343426,0,0,0,0,0,0,0,0,0,0,1.4822e-323,108.333,49,0,0,0
0,1405616649,344428,0,0,0,0,0,0,0,0,0,0,1.4822e-323,108.333,52,0,0,0
0,1405616650,345431,0,0,0,0,0,0,0,0,0,0,1.4822e-323,108.333,54,0,0,0
0,1405616651,346432,0,0,0,0,0,0,0,0,0,0,1.4822e-323,108.333,53,0,0,0
0,1405616652,347433,0,0,0,0,0,0,0,0,0,0,1.4822e-323,108.333,52,0,0,0
0,1405616653,348434,0,0,0,0,0,0,0,0,0,0,1.4822e-323,108.333,50,0,0,0
0,1405616654,349435,0,0,0,0,0,0,0,0,0,0,1.4822e-323,108.333,50,0,0,0
0,1405616656,351252,0,0,0,0,0,0,0,0,0,0,1.4822e-323,108.333,5,0,0,0
0,1405616657,352253,0,0,0,0,0,0,0,0,0,0,1.4822e-323,108.333,49,0,0,0
0,1405616658,353254,0,0,0,0,0,0,0,0,0,0,1.4822e-323,108.333,52,0,0,0
0,1405616659,354255,0,0,0,0,0,0,0,0,0,0,1.4822e-323,108.333,52,0,0,0
0,1405616660,355256,0,0,0,0,0,0,0,0,0,0,1.4822e-323,108.333,54,0,0,0
0,1405616661,356257,0,0,0,0,0,0,0,0,0,0,1.4822e-323,108.333,48,0,0,0
0,1405616662,357258,0,0,0,0,0,0,0,0,0,0,1.4822e-323,108.333,47,0,0,0
0,1405616663,358260,0,0,0,0,0,0,0,0,0,0,1.4822e-323,108.333,52,0,0,0
0,1405616664,359263,0,0,0,0,0,0,0,0,0,0,1.4822e-323,108.333,52,0,0,0
0,1405616665,360264,0,0,0,0,0,0,0,0,0,0,1.4822e-323,108.333,49,0,0,0
0,1405616666,361265,0,0,0,0,0,0,0,0,0,0,1.4822e-323,108.333,49,0,0,0
0,1405616667,362266,0,0,0,0,0,0,0,0,0,0,1.4822e-323,108.333,50,0,0,0
0,1405616668,363268,0,0,0,0,0,0,0,0,0,0,1.4822e-323,108.333,50,0,0,0
0,1405616669,364269,0,0,0,0,0,0,0,0,0,0,1.4822e-323,108.333,50,0,0,0
0,1405616670,365270,0,0,0,0,0,0,0,0,0,0,1.4822e-323,108.333,50,0,0,0
0,1405616671,366272,0,0,0,0,0,0,0,0,0,0,1.4822e-323,108.333,49,0,0,0
0,1405616672,367273,0,0,0,0,0,0,0,0,0,0,1.4822e-323,108.333,54,0,0,0
0,1405616673,368274,0,0,0,0,0,0,0,0,0,0,1.4822e-323,108.333,54,0,0,0
0,1405616674,369275,0,0,0,0,0,0,0,0,0,0,1.4822e-323,108.333,50,0,0,0
0,1405616675,370277,0,0,0,0,0,0,0,0,0,0,1.4822e-323,108.333,53,0,0,0
0,1405616676,371278,0,0,0,0,0,0,0,0,0,0,1.4822e-323,108.333,50,0,0,0
0,1405616677,372279,0,0,0,0,0,0,0,0,0,0,1.4822e-323,108.333,52,0,0,0
0,1405616678,373280,0,0,0,0,0,0,0,0,0,0,1.4822e-323,108.333,50,0,0,0
0,1405616679,374281,0,0,0,0,0,0,0,0,0,0,1.4822e-323,108.333,52,0,0,0
0,1405616680,375282,0,0,0,0,0,0,0,0,0,0,1.4822e-323,108.333,56,0,0,0
0,1405616681,376284,0,0,0,0,0,0,0,0,0,0,1.4822e-323,108.333,54,0,0,0
0,1405616682,377286,0,0,0,0,0,0,0,0,0,0,1.4822e-323,108.333,52,0,0,0
0,1405616683,378287,0,0,0,0,0,0,0,0,0,0,1.4822e-323,108.333,51,0,0,0
0,1405616684,379288,0,0,0,0,0,0,0,0,0,0,1.4822e-323,108.333,50,0,0,0
0,1405616685,380289,0,0,0,0,0,0,0,0,0,0,1.4822e-323,108.333,53,0,0,0
0,1405616686,381291,0,0,0,0,0,0,0,0,0,0,1.4822e-323,108.333,52,0,0,0
0,1405616687,382292,0,0,0,0,0,0,0,0,0,0,1.4822e-323,108.333,51,0,0,0
0,1405616688,383293,0,0,0,0,0,0,0,0,0,0,1.4822e-323,108.333,55,0,0,0
0,1405616689,384294,0,0,0,0,0,0,0,0,0,0,1.4822e-323,108.333,54,0,0,0
0,1405616690,385295,0,0,0,0,0,0,0,0,0,0,1.4822e-323,108.333,53,0,0,0
0,1405616691,386296,0,0,0,0,0,0,0,0,0,0,1.4822e-323,108.333,44,0,0,0
0,1405616692,387297,0,0,0,0,0,0,0,0,0,0,1.4822e-323,108.333,51,0,0,0
0,1405616693,388298,0,0,0,0,0,0,0,0,0,0,1.4822e-323,108.333,53,0,0,0
0,1405616694,389299,0,0,0,0,0,0,0,0,0,0,1.4822e-323,108.333,51,0,0,0
0,1405616695,390300,0,0,0,0,0,0,0,0,0,0,1.4822e-323,108.333,47,0,0,0
0,1405616696,391301,0,0,0,0,0,0,0,0,0,0,1.4822e-323,108.333,52,0,0,0
0,1405616697,392303,0,0,0,0,0,0,0,0,0,0,1.4822e-323,108.333,49,0,0,0
0,1405616698,393304,0,0,0,0,0,0,0,0,0,0,1.4822e-323,108.333,51,0,0,0
0,1405616699,394305,0,0,0,0,0,0,0,0,0,0,1.4822e-323,108.333,47,0,0,0
0,1405616700,395306,0,0,0,0,0,0,0,0,0,0,1.4822e-323,108.333,51,0,0,0
0,1405616701,396307,0,0,0,0,0,0,0,0,0,0,1.4822e-323,108.333,51,0,0,0
0,1405616702,397308,0,0,0,0,0,0,0,0,0,0,1.4822e-323,108.333,49,0,0,0
0,1405616703,398309,0,0,0,0,0,0,0,0,0,0,1.4822e-323,108.333,45,0,0,0
0,1405616704,399311,0,0,0,0,0,0,0,0,0,0,1.4822e-323,108.333,47,0,0,0
0,1405616705,400312,0,0,0,0,0,0,0,0,0,0,1.4822e-323,108.333,50,0,0,0
0,1405616706,401313,0,0,0,0,0,0,0,0,0,0,1.4822e-323,108.333,50,0,0,0
0,1405616707,402314,0,0,0,0,0,0,0,0,0,0,1.4822e-323,108.333,45,0,0,0
0,1405616708,403315,0,0,0,0,0,0,0,0,0,0,1.4822e-323,108.333,49,0,0,0
0,1405616709,404316,0,0,0,0,0,0,0,0,0,0,1.4822e-323,108.333,52,0,0,0
0,1405616710,405317,0,0,0,0,0,0,0,0,0,0,1.4822e-323,108.333,53,0,0,0
0,1405616711,406318,0,0,0,0,0,0,0,0,0,0,1.4822e-323,108.333,47,0,0,0
0,1405616712,407319,0,0,0,0,0,0,0,0,0,0,1.4822e-323,108.333,50,0,0,0
0,1405616713,408320,0,0,0,0,0,0,0,0,0,0,1.4822e-323,108.333,48,0,0,0
0,1405616714,409321,0,0,0,0,0,0,0,0,0,0,1.4822e-323,108.333,53,0,0,0
0,1405616715,410322,0,0,0,0,0,0,0,0,0,0,1.4822e-323,108.333,50,0,0,0
0,1405616716,411323,0,0,0,0,0,0,0,0,0,0,1.4822e-323,108.333,54,0,0,0
0,1405616717,412324,0,0,0,0,0,0,0,0,0,0,1.4822e-323,108.333,53,0,0,0
0,1405616718,413325,0,0,0,0,0,0,0,0,0,0,1.4822e-323,108.333,56,0,0,0
0,1405616719,414326,0,0,0,0,0,0,0,0,0,0,1.4822e-323,108.333,47,0,0,0
0,1405616720,415328,0,0,0,0,0,0,0,0,0,0,1.4822e-323,108.333,52,0,0,0
0,1405616721,416330,0,0,0,0,0,0,0,0,0,0,1.4822e-323,108.333,54,0,0,0
0,1405616722,417331,0,0,0,0,0,0,0,0,0,0,1.4822e-323,108.333,53,0,0,0
0,1405616723,418332,0,0,0,0,0,0,0,0,0,0,1.4822e-323,108.333,49,0,0,0
0,1405616724,419333,0,0,0,0,0,0,0,0,0,0,1.4822e-323,108.333,53,0,0,0
0,1405616725,420334,0,0,0,0,0,0,0,0,0,0,1.4822e-323,108.333,50,0,0,0
0,1405616726,421335,0,0,0,0,0,0,0,0,0,0,1.4822e-323,108.333,51,0,0,0
0,1405616727,422336,0,0,0,0,0,0,0,0,0,0,1.4822e-323,108.333,47,0,0,0
0,1405616728,423339,0,0,0,0,0,0,0,0,0,0,1.4822e-323,108.333,53,0,0,0
0,1405616729,424340,0,0,0,0,0,0,0,0,0,0,1.4822e-323,108.333,56,0,0,0
0,1405616730,425341,0,0,0,0,0,0,0,0,0,0,1.4822e-323,108.333,52,0,0,0
0,1405616731,426342,0,0,0,0,0,0,0,0,0,0,1.4822e-323,108.333,51,0,0,0
0,1405616732,427344,0,0,0,0,0,0,0,0,0,0,1.4822e-323,108.333,52,0,0,0
0,1405616733,428345,0,0,0,0,0,0,0,0,0,0,1.4822e-323,108.333,52,0,0,0
0,1405616734,429346,0,0,0,0,0,0,0,0,0,0,1.4822e-323,108.333,50,0,0,0
0,1405616735,430347,0,0,0,0,0,0,0,0,0,0,1.4822e-323,108.333,50,0,0,0
0,1405616736,431348,0,0,0,0,0,0,0,0,0,0,1.4822e-323,108.333,50,0,0,0
0,1405616737,432350,0,0,0,0,0,0,0,0,0,0,1.4822e-323,108.333,55,0,0,0
0,1405616738,433351,0,0,0,0,0,0,0,0,0,0,1.4822e-323,108.333,55,0,0,0
0,1405616739,434352,0,0,0,0,0,0,0,0,0,0,1.4822e-323,108.333,48,0,0,0
0,1405616740,435353,0,0,0,0,0,0,0,0,0,0,1.4822e-323,108.333,48,0,0,0
0,1405616741,436354,0,0,0,0,0,0,0,0,0,0,1.4822e-323,108.333,49,0,0,0
0,1405616742,437355,0,0,0,0,0,0,0,0,0,0,1.4822e-323,108.333,48,0,0,0
0,1405616743,438356,0,0,0,0,0,0,0,0,0,0,1.4822e-323,108.333,47,0,0,0
0,1405616744,439357,0,0,0,0,0,0,0,0,0,0,1.4822e-323,108.333,51,0,0,0
0,1405616745,440358,0,0,0,0,0,0,0,0,0,0,1.4822e-323,108.333,54,0,0,0
0,1405616746,441359,0,0,0,0,0,0,0,0,0,0,1.4822e-323,108.333,55,0,0,0
0,1405616747,442360,0,0,0,0,0,0,0,0,0,0,1.4822e-323,108.333,49,0,0,0
0,1405616748,443361,0,0,0,0,0,0,0,0,0,0,1.4822e-323,108.333,50,0,0,0
0,1405616749,444362,0,0,0,0,0,0,0,0,0,0,1.4822e-323,108.333,54,0,0,0
0,1405616750,445363,0,0,0,0,0,0,0,0,0,0,1.4822e-323,108.333,48,0,0,0
0,1405616751,446364,0,0,0,0,0,0,0,0,0,0,1.4822e-323,108.333,50,0,0,0
0,1405616752,447365,0,0,0,0,0,0,0,0,0,0,1.4822e-323,108.333,51,0,0,0
0,1405616753,448366,0,0,0,0,0,0,0,0,0,0,1.4822e-323,108.333,51,0,0,0
0,1405616754,449368,0,0,0,0,0,0,0,0,0,0,1.4822e-323,108.333,50,0,0,0
0,1405616755,450369,0,0,0,0,0,0,0,0,0,0,1.4822e-323,108.333,49,0,0,0
0,1405616756,451373,0,0,0,0,0,0,0,0,0,0,1.4822e-323,108.333,50,0,0,0
0,1405616757,452374,0,0,0,0,0,0,0,0,0,0,1.4822e-323,108.333,52,0,0,0
0,1405616758,453375,0,0,0,0,0,0,0,0,0,0,1.4822e-323,108.333,50,0,0,0
0,1405616759,454376,0,0,0,0,0,0,0,0,0,0,1.4822e-323,108.333,52,0,0,0
0,1405616760,455377,0,0,0,0,0,0,0,0,0,0,1.4822e-323,108.333,49,0,0,0
0,1405616761,456379,0,0,0,0,0,0,0,0,0,0,1.4822e-323,108.333,55,0,0,0
0,1405616762,457381,0,0,0,0,0,0,0,0,0,0,1.4822e-323,108.333,49,0,0,0
0,1405616763,458382,0,0,0,0,0,0,0,0,0,0,1.4822e-323,108.333,50,0,0,0
0,1405616764,459383,0,0,0,0,0,0,0,0,0,0,1.4822e-323,108.333,51,0,0,0
0,1405616765,460384,0,0,0,0,0,0,0,0,0,0,1.4822e-323,108.333,55,0,0,0
0,1405616766,461385,0,0,0,0,0,0,0,0,0,0,1.4822e-323,108.333,52,0,0,0
0,1405616767,462387,0,0,0,0,0,0,0,0,0,0,1.4822e-323,108.333,50,0,0,0
0,1405616768,463388,0,0,0,0,0,0,0,0,0,0,1.4822e-323,108.333,48,0,0,0
0,1405616769,464389,0,0,0,0,0,0,0,0,0,0,1.4822e-323,108.333,51,0,0,0
0,1405616770,465390,0,0,0,0,0,0,0,0,0,0,1.4822e-323,108.333,49,0,0,0
0,1405616771,466391,0,0,0,0,0,0,0,0,0,0,1.4822e-323,108.333,52,0,0,0
0,1405616772,467392,0,0,0,0,0,0,0,0,0,0,1.4822e-323,108.333,50,0,0,0
0,1405616773,468393,0,0,0,0,0,0,0,0,0,0,1.4822e-323,108.333,54,0,0,0
0,1405616774,469394,0,0,0,0,0,0,0,0,0,0,1.4822e-323,108.333,55,0,0,0
0,1405616775,470395,0,0,0,0,0,0,0,0,0,0,1.4822e-323,108.333,50,0,0,0
0,1405616776,471396,0,0,0,0,0,0,0,0,0,0,1.4822e-323,108.333,50,0,0,0
0,1405616777,472397,0,0,0,0,0,0,0,0,0,0,1.4822e-323,108.333,53,0,0,0
0,1405616778,473398,0,0,0,0,0,0,0,0,0,0,1.4822e-323,108.333,51,0,0,0
0,1405616779,474399,0,0,0,0,0,0,0,0,0,0,1.4822e-323,108.333,51,0,0,0
0,1405616780,475400,0,0,0,0,0,0,0,0,0,0,1.4822e-323,108.333,50,0,0,0
0,1405616781,476402,0,0,0,0,0,0,0,0,0,0,1.4822e-323,108.333,48,0,0,0
0,1405616782,477404,0,0,0,0,0,0,0,0,0,0,1.4822e-323,108.333,45,0,0,0
0,1405616783,478406,0,0,0,0,0,0,0,0,0,0,1.4822e-323,108.333,45,0,0,0
0,1405616784,479407,0,0,0,0,0,0,0,0,0,0,1.4822e-323,108.333,54,0,0,0
0,1405616785,480410,0,0,0,0,0,0,0,0,0,0,1.4822e-323,108.333,52,0,0,0
0,1405616786,481411,0,0,0,0,0,0,0,0,0,0,1.4822e-323,108.333,55,0,0,0
0,1405616787,482412,0,0,0,0,0,0,0,0,0,0,1.4822e-323,108.333,52,0,0,0
0,1405616788,483413,0,0,0,0,0,0,0,0,0,0,1.4822e-323,108.333,53,0,0,0
0,1405616789,484414,0,0,0,0,0,0,0,0,0,0,1.4822e-323,108.333,52,0,0,0
0,1405616790,485415,0,0,0,0,0,0,0,0,0,0,1.4822e-323,108.333,53,0,0,0
0,1405616791,486416,0,0,0,0,0,0,0,0,0,0,1.4822e-323,108.333,51,0,0,0
0,1405616792,487418,0,0,0,0,0,0,0,0,0,0,1.4822e-323,108.333,52,0,0,0
0,1405616793,488420,0,0,0,0,0,0,0,0,0,0,1.4822e-323,108.333,55,0,0,0
0,1405616794,489421,0,0,0,0,0,0,0,0,0,0,1.4822e-323,108.333,55,0,0,0
0,1405616795,490422,0,0,0,0,0,0,0,0,0,0,1.4822e-323,108.333,50,0,0,0
0,1405616796,491423,0,0,0,0,0,0,0,0,0,0,1.4822e-323,108.333,49,0,0,0
0,1405616797,492424,0,0,0,0,0,0,0,0,0,0,1.4822e-323,108.333,50,0,0,0
0,1405616798,493425,0,0,0,0,0,0,0,0,0,0,1.4822e-323,108.333,52,0,0,0
0,1405616799,494426,0,0,0,0,0,0,0,0,0,0,1.4822e-323,108.333,52,0,0,0
0,1405616800,495427,0,0,0,0,0,0,0,0,0,0,1.4822e-323,108.333,52,0,0,0
0,1405616801,496429,0,0,0,0,0,0,0,0,0,0,1.4822e-323,108.333,16,0,0,0
0,1405616802,497431,0,0,0,0,0,0,0,0,0,0,1.4822e-323,108.333,53,0,0,0
0,1405616803,498432,0,0,0,0,0,0,0,0,0,0,1.4822e-323,108.333,56,0,0,0
0,1405616804,499433,0,0,0,0,0,0,0,0,0,0,1.4822e-323,108.333,52,0,0,0
0,1405616805,500434,0,0,0,0,0,0,0,0,0,0,1.4822e-323,108.333,51,0,0,0
0,1405616806,501435,0,0,0,0,0,0,0,0,0,0,1.4822e-323,108.333,51,0,0,0
0,1405616807,502436,0,0,0,0,0,0,0,0,0,0,1.4822e-323,108.333,49,0,0,0
0,1405616808,503437,0,0,0,0,0,0,0,0,0,0,1.4822e-323,108.333,50,0,0,0
0,1405616809,504438,0,0,0,0,0,0,0,0,0,0,1.4822e-323,108.333,53,0,0,0
0,1405616810,505440,0,0,0,0,0,0,0,0,0,0,1.4822e-323,108.333,55,0,0,0
0,1405616811,506441,0,0,0,0,0,0,0,0,0,0,1.4822e-323,108.333,53,0,0,0
0,1405616812,507444,0,0,0,0,0,0,0,0,0,0,1.4822e-323,108.333,50,0,0,0
0,1405616813,508445,0,0,0,0,0,0,0,0,0,0,1.4822e-323,108.333,47,0,0,0
0,1405616814,509446,0,0,0,0,0,0,0,0,0,0,1.4822e-323,108.333,52,0,0,0
0,1405616815,510447,0,0,0,0,0,0,0,0,0,0,1.4822e-323,108.333,48,0,0,0
0,1405616816,511449,0,0,0,0,0,0,0,0,0,0,1.4822e-323,108.333,53,0,0,0
0,1405616817,512450,0,0,0,0,0,0,0,0,0,0,1.4822e-323,108.333,51,0,0,0
0,1405616818,513452,0,0,0,0,0,0,0,0,0,0,1.4822e-323,108.333,52,0,0,0
0,1405616819,514453,0,0,0,0,0,0,0,0,0,0,1.4822e-323,108.333,46,0,0,0
0,1405616820,515455,0,0,0,0,0,0,0,0,0,0,1.4822e-323,108.333,46,0,0,0
0,1405616821,516456,0,0,0,0,0,0,0,0,0,0,1.4822e-323,108.333,46,0,0,0
0,1405616822,517457,0,0,0,0,0,0,0,0,0,0,1.4822e-323,108.333,48,0,0,0
0,1405616823,518458,0,0,0,0,0,0,0,0,0,0,1.4822e-323,108.333,53,0,0,0
0,1405616824,519459,0,0,0,0,0,0,0,0,0,0,1.4822e-323,108.333,53,0,0,0
0,1405616825,520461,0,0,0,0,0,0,0,0,0,0,1.4822e-323,108.333,52,0,0,0
0,1405616826,521463,0,0,0,0,0,0,0,0,0,0,1.4822e-323,108.333,55,0,0,0
0,1405616827,522464,0,0,0,0,0,0,0,0,0,0,1.4822e-323,108.333,50,0,0,0
0,1405616828,523465,0,0,0,0,0,0,0,0,0,0,1.4822e-323,108.333,50,0,0,0
0,1405616829,524466,0,0,0,0,0,0,0,0,0,0,1.4822e-323,108.333,54,0,0,0
0,1405616831,526153,0,0,0,0,0,0,0,0,0,0,1.4822e-323,108.333,40,0,0,0
0,1405616832,527154,0,0,0,0,0,0,0,0,0,0,1.4822e-323,108.333,53,0,0,0
0,1405616833,528155,0,0,0,0,0,0,0,0,0,0,1.4822e-323,108.333,53,0,0,0
0,1405616834,529156,0,0,0,0,0,0,0,0,0,0,1.4822e-323,108.333,51,0,0,0
0,1405616835,530157,0,0,0,0,0,0,0,0,0,0,1.4822e-323,108.333,49,0,0,0
0,1405616836,531161,0,0,0,0,0,0,0,0,0,0,1.4822e-323,108.333,15,0,0,0
0,1405616837,532162,0,0,0,0,0,0,0,0,0,0,1.4822e-323,108.333,51,0,0,0
0,1405616838,533163,0,0,0,0,0,0,0,0,0,0,1.4822e-323,108.333,49,0,0,0
0,1405616839,534164,0,0,0,0,0,0,0,0,0,0,1.4822e-323,108.333,52,0,0,0
0,1405616840,535166,0,0,0,0,0,0,0,0,0,0,1.4822e-323,108.333,53,0,0,0
0,1405616841,536167,0,0,0,0,0,0,0,0,0,0,1.4822e-323,108.333,48,0,0,0
0,1405616842,537168,0,0,0,0,0,0,0,0,0,0,1.4822e-323,108.333,51,0,0,0
0,1405616843,538169,0,0,0,0,0,0,0,0,0,0,1.4822e-323,108.333,52,0,0,0
0,1405616844,539170,0,0,0,0,0,0,0,0,0,0,1.4822e-323,108.333,53,0,0,0
0,1405616845,540171,0,0,0,0,0,0,0,0,0,0,1.4822e-323,108.333,50,0,0,0
0,1405616846,541174,0,0,0,0,0,0,0,0,0,0,1.4822e-323,108.333,48,0,0,0
0,1405616847,542175,0,0,0,0,0,0,0,0,0,0,1.4822e-323,108.333,49,0,0,0
0,1405616848,543176,0,0,0,0,0,0,0,0,0,0,1.4822e-323,108.333,52,0,0,0
0,1405616849,544178,0,0,0,0,0,0,0,0,0,0,1.4822e-323,108.333,48,0,0,0
0,1405616850,545179,0,0,0,0,0,0,0,0,0,0,1.4822e-323,108.333,50,0,0,0
0,1405616851,546180,0,0,0,0,0,0,0,0,0,0,1.4822e-323,108.333,50,0,0,0
0,1405616852,547181,0,0,0,0,0,0,0,0,0,0,1.4822e-323,108.333,55,0,0,0
0,1405616853,548183,0,0,0,0,0,0,0,0,0,0,1.4822e-323,108.333,52,0,0,0
0,1405616854,549184,0,0,0,0,0,0,0,0,0,0,1.4822e-323,108.333,53,0,0,0
0,1405616855,550186,0,0,0,0,0,0,0,0,0,0,1.4822e-323,108.333,50,0,0,0
0,1405616856,551187,0,0,0,0,0,0,0,0,0,0,1.4822e-323,108.333,51,0,0,0
0,1405616857,552188,0,0,0,0,0,0,0,0,0,0,1.4822e-323,108.333,53,0,0,0
0,1405616858,553189,0,0,0,0,0,0,0,0,0,0,1.4822e-323,108.333,51,0,0,0
0,1405616859,554190,0,0,0,0,0,0,0,0,0,0,1.4822e-323,108.333,52,0,0,0
0,1405616860,555191,0,0,0,0,0,0,0,0,0,0,1.4822e-323,108.333,51,0,0,0
0,1405616861,556192,0,0,0,0,0,0,0,0,0,0,1.4822e-323,108.333,50,0,0,0
0,1405616862,557193,0,0,0,0,0,0,0,0,0,0,1.4822e-323,108.333,46,0,0,0
0,1405616863,558194,0,0,0,0,0,0,0,0,0,0,1.4822e-323,108.333,53,0,0,0
0,1405616864,559198,0,0,0,0,0,0,0,0,0,0,1.4822e-323,108.333,55,0,0,0
0,1405616865,560199,0,0,0,0,0,0,0,0,0,0,1.4822e-323,108.333,54,0,0,0
0,1405616866,561200,0,0,0,0,0,0,0,0,0,0,1.4822e-323,108.333,54,0,0,0
0,1405616867,562201,0,0,0,0,0,0,0,0,0,0,1.4822e-323,108.333,53,0,0,0
0,1405616868,563203,0,0,0,0,0,0,0,0,0,0,1.4822e-323,108.333,53,0,0,0
0,1405616869,564204,0,0,0,0,0,0,0,0,0,0,1.4822e-323,108.333,49,0,0,0
0,1405616870,565205,0,0,0,0,0,0,0,0,0,0,1.4822e-323,108.333,51,0,0,0
0,1405616871,566206,0,0,0,0,0,0,0,0,0,0,1.4822e-323,108.333,53,0,0,0
0,1405616872,567207,0,0,0,0,0,0,0,0,0,0,1.4822e-323,108.333,55,0,0,0
0,1405616873,568209,0,0,0,0,0,0,0,0,0,0,1.4822e-323,108.333,55,0,0,0
0,1405616874,569211,0,0,0,0,0,0,0,0,0,0,1.4822e-323,108.333,49,0,0,0
0,1405616875,570212,0,0,0,0,0,0,0,0,0,0,1.4822e-323,108.333,45,0,0,0
0,1405616876,571213,0,0,0,0,0,0,0,0,0,0,1.4822e-323,108.333,51,0,0,0
0,1405616877,572214,0,0,0,0,0,0,0,0,0,0,1.4822e-323,108.333,49,0,0,0
0,1405616878,573215,0,0,0,0,0,0,0,0,0,0,1.4822e-323,108.333,52,0,0,0
0,1405616879,574216,0,0,0,0,0,0,0,0,0,0,1.4822e-323,108.333,50,0,0,0
0,1405616880,575217,0,0,0,0,0,0,0,0,0,0,1.4822e-323,108.333,55,0,0,0
0,1405616881,576219,0,0,0,0,0,0,0,0,0,0,1.4822e-323,108.333,50,0,0,0
0,1405616882,577220,0,0,0,0,0,0,0,0,0,0,1.4822e-323,108.333,52,0,0,0
0,1405616883,578221,0,0,0,0,0,0,0,0,0,0,1.4822e-323,108.333,50,0,0,0
0,1405616884,579223,0,0,0,0,0,0,0,0,0,0,1.4822e-323,108.333,54,0,0,0
0,1405616885,580224,0,0,0,0,0,0,0,0,0,0,1.4822e-323,108.333,51,0,0,0
0,1405616886,581225,0,0,0,0,0,0,0,0,0,0,1.4822e-323,108.333,48,0,0,0
0,1405616887,582227,0,0,0,0,0,0,0,0,0,0,1.4822e-323,108.333,45,0,0,0
0,1405616888,583229,0,0,0,0,0,0,0,0,0,0,1.4822e-323,108.333,50,0,0,0
0,1405616889,584230,0,0,0,0,0,0,0,0,0,0,1.4822e-323,108.333,47,0,0,0
0,1405616890,585231,0,0,0,0,0,0,0,0,0,0,1.4822e-323,108.333,48,0,0,0
0,1405616891,586232,0,0,0,0,0,0,0,0,0,0,1.4822e-323,108.333,52,0,0,0
0,1405616892,587233,0,0,0,0,0,0,0,0,0,0,1.4822e-323,108.333,49,0,0,0
0,1405616893,588234,0,0,0,0,0,0,0,0,0,0,1.4822e-323,108.333,53,0,0,0
0,1405616894,589235,0,0,0,0,0,0,0,0,0,0,1.4822e-323,108.333,50,0,0,0
0,1405616895,590236,0,0,0,0,0,0,0,0,0,0,1.4822e-323,108.333,50,0,0,0
0,1405616896,591238,0,0,0,0,0,0,0,0,0,0,1.4822e-323,108.333,50,0,0,0
0,1405616897,592240,0,0,0,0,0,0,0,0,0,0,1.4822e-323,108.333,56,0,0,0
0,1405616898,593241,0,0,0,0,0,0,0,0,0,0,1.4822e-323,108.333,54,0,0,0
0,1405616899,594242,0,0,0,0,0,0,0,0,0,0,1.4822e-323,108.333,50,0,0,0
0,1405616900,595243,0,0,0,0,0,0,0,0,0,0,1.4822e-323,108.333,51,0,0,0
0,1405616901,596244,0,0,0,0,0,0,0,0,0,0,1.4822e-323,108.333,55,0,0,0
0,1405616902,597245,0,0,0,0,0,0,0,0,0,0,1.4822e-323,108.333,50,0,0,0
0,1405616903,598246,0,0,0,0,0,0,0,0,0,0,1.4822e-323,108.333,50,0,0,0
0,1405616904,599248,0,0,0,0,0,0,0,0,0,0,1.4822e-323,108.333,48,0,0,0
0,1405616905,600250,0,0,0,0,0,0,0,0,0,0,1.4822e-323,108.333,55,0,0,0
0,1405616906,601252,0,0,0,0,0,0,0,0,0,0,1.4822e-323,108.333,55,0,0,0
0,1405616907,602254,0,0,0,0,0,0,0,0,0,0,1.4822e-323,108.333,51,0,0,0
0,1405616908,603255,0,0,0,0,0,0,0,0,0,0,1.4822e-323,108.333,53,0,0,0
0,1405616909,604256,0,0,0,0,0,0,0,0,0,0,1.4822e-323,108.333,54,0,0,0
0,1405616910,605257,0,0,0,0,0,0,0,0,0,0,1.4822e-323,108.333,53,0,0,0
0,1405616911,606258,0,0,0,0,0,0,0,0,0,0,1.4822e-323,108.333,52,0,0,0
0,1405616912,607259,0,0,0,0,0,0,0,0,0,0,1.4822e-323,108.333,52,0,0,0
0,1405616913,608260,0,0,0,0,0,0,0,0,0,0,1.4822e-323,108.333,51,0,0,0
0,1405616914,609261,0,0,0,0,0,0,0,0,0,0,1.4822e-323,108.333,53,0,0,0
0,1405616915,610262,0,0,0,0,0,0,0,0,0,0,1.4822e-323,108.333,53,0,0,0
0,1405616916,611263,0,0,0,0,0,0,0,0,0,0,1.4822e-323,108.333,49,0,0,0
0,1405616917,612264,0,0,0,0,0,0,0,0,0,0,1.4822e-323,108.333,53,0,0,0
0,1405616918,613265,0,0,0,0,0,0,0,0,0,0,1.4822e-323,108.333,52,0,0,0
0,1405616919,614269,0,0,0,0,0,0,0,0,0,0,1.4822e-323,108.333,52,0,0,0
0,1405616920,615270,0,0,0,0,0,0,0,0,0,0,1.4822e-323,108.333,51,0,0,0
0,1405616921,616271,0,0,0,0,0,0,0,0,0,0,1.4822e-323,108.333,53,0,0,0
0,1405616922,617272,0,0,0,0,0,0,0,0,0,0,1.4822e-323,108.333,51,0,0,0
0,1405616923,618273,0,0,0,0,0,0,0,0,0,0,1.4822e-323,108.333,51,0,0,0
0,1405616924,619275,0,0,0,0,0,0,0,0,0,0,1.4822e-323,108.333,48,0,0,0
0,1405616925,620276,0,0,0,0,0,0,0,0,0,0,1.4822e-323,108.333,50,0,0,0
0,1405616926,621277,0,0,0,0,0,0,0,0,0,0,1.4822e-323,108.333,51,0,0,0
0,1405616927,622278,0,0,0,0,0,0,0,0,0,0,1.4822e-323,108.333,48,0,0,0
0,1405616928,623280,0,0,0,0,0,0,0,0,0,0,1.4822e-323,108.333,49,0,0,0
0,1405616929,624282,0,0,0,0,0,0,0,0,0,0,1.4822e-323,108.333,54,0,0,0
0,1405616930,625284,0,0,0,0,0,0,0,0,0,0,1.4822e-323,108.333,54,0,0,0
0,1405616931,626285,0,0,0,0,0,0,0,0,0,0,1.4822e-323,108.333,50,0,0,0
0,1405616932,627286,0,0,0,0,0,0,0,0,0,0,1.4822e-323,108.333,49,0,0,0
0,1405616933,628287,0,0,0,0,0,0,0,0,0,0,1.4822e-323,108.333,52,0,0,0
0,1405616934,629288,0,0,0,0,0,0,0,0,0,0,1.4822e-323,108.333,52,0,0,0
0,1405616935,630289,0,0,0,0,0,0,0,0,0,0,1.4822e-323,108.333,49,0,0,0
0,1405616936,631290,0,0,0,0,0,0,0,0,0,0,1.4822e-323,108.333,49,0,0,0
0,1405616937,632294,0,0,0,0,0,0,0,0,0,0,1.4822e-323,108.333,49,0,0,0
0,1405616938,633295,0,0,0,0,0,0,0,0,0,0,1.4822e-323,108.333,49,0,0,0
0,1405616939,634296,0,0,0,0,0,0,0,0,0,0,1.4822e-323,108.333,53,0,0,0
0,1405616940,635297,0,0,0,0,0,0,0,0,0,0,1.4822e-323,108.333,51,0,0,0
0,1405616941,636298,0,0,0,0,0,0,0,0,0,0,1.4822e-323,108.333,53,0,0,0
0,1405616942,637299,0,0,0,0,0,0,0,0,0,0,1.4822e-323,108.333,53,0,0,0
0,1405616943,638301,0,0,0,0,0,0,0,0,0,0,1.4822e-323,108.333,51,0,0,0
0,1405616944,639302,0,0,0,0,0,0,0,0,0,0,1.4822e-323,108.333,49,0,0,0
0,1405616945,640303,0,0,0,0,0,0,0,0,0,0,1.4822e-323,108.333,52,0,0,0
0,1405616946,641305,0,0,0,0,0,0,0,0,0,0,1.4822e-323,108.333,50,0,0,0
0,1405616947,642307,0,0,0,0,0,0,0,0,0,0,1.4822e-323,108.333,51,0,0,0
0,1405616948,643308,0,0,0,0,0,0,0,0,0,0,1.4822e-323,108.333,51,0,0,0
0,1405616949,644309,0,0,0,0,0,0,0,0,0,0,1.4822e-323,108.333,51,0,0,0
0,1405616950,645310,0,0,0,0,0,0,0,0,0,0,1.4822e-323,108.333,45,0,0,0
0,1405616951,646311,0,0,0,0,0,0,0,0,0,0,1.4822e-323,108.333,51,0,0,0
0,1405616952,647312,0,0,0,0,0,0,0,0,0,0,1.4822e-323,108.333,47,0,0,0
0,1405616953,648313,0,0,0,0,0,0,0,0,0,0,1.4822e-323,108.333,54,0,0,0
0,1405616954,649314,0,0,0,0,0,0,0,0,0,0,1.4822e-323,108.333,53,0,0,0
0,1405616955,650318,0,0,0,0,0,0,0,0,0,0,1.4822e-323,108.333,46,0,0,0
0,1405616956,651321,0,0,0,0,0,0,0,0,0,0,1.4822e-323,108.333,51,0,0,0
0,1405616957,652322,0,0,0,0,0,0,0,0,0,0,1.4822e-323,108.333,51,0,0,0
0,1405616958,653323,0,0,0,0,0,0,0,0,0,0,1.4822e-323,108.333,55,0,0,0
0,1405616959,654324,0,0,0,0,0,0,0,0,0,0,1.4822e-323,108.333,50,0,0,0
0,1405616960,655326,0,0,0,0,0,0,0,0,0,0,1.4822e-323,108.333,46,0,0,0
0,1405616961,656327,0,0,0,0,0,0,0,0,0,0,1.4822e-323,108.333,50,0,0,0
0,1405616962,657328,0,0,0,0,0,0,0,0,0,0,1.4822e-323,108.333,52,0,0,0
0,1405616963,658329,0,0,0,0,0,0,0,0,0,0,1.4822e-323,108.333,52,0,0,0
0,1405616964,659330,0,0,0,0,0,0,0,0,0,0,1.4822e-323,108.333,48,0,0,0
0,1405616965,660332,0,0,0,0,0,0,0,0,0,0,1.4822e-323,108.333,43,0,0,0
0,1405616966,661333,0,0,0,0,0,0,0,0,0,0,1.4822e-323,108.333,50,0,0,0
0,1405616967,662334,0,0,0,0,0,0,0,0,0,0,1.4822e-323,108.333,48,0,0,0
0,1405616968,663335,0,0,0,0,0,0,0,0,0,0,1.4822e-323,108.333,52,0,0,0
0,1405616969,664336,0,0,0,0,0,0,0,0,0,0,1.4822e-323,108.333,49,0,0,0
0,1405616970,665337,0,0,0,0,0,0,0,0,0,0,1.4822e-323,108.333,46,0,0,0
0,1405616971,666338,0,0,0,0,0,0,0,0,0,0,1.4822e-323,108.333,53,0,0,0
0,1405616972,667340,0,0,0,0,0,0,0,0,0,0,1.4822e-323,108.333,52,0,0,0
0,1405616973,668341,0,0,0,0,0,0,0,0,0,0,1.4822e-323,108.333,49,0,0,0
0,1405616974,669342,0,0,0,0,0,0,0,0,0,0,1.4822e-323,108.333,54,0,0,0
0,1405616975,670352,0,0,0,0,0,0,0,0,0,0,1.4822e-323,108.333,55,0,0,0
0,1405616976,671353,0,0,0,0,0,0,0,0,0,0,1.4822e-323,108.333,51,0,0,0
0,1405616977,672355,0,0,0,0,0,0,0,0,0,0,1.4822e-323,108.333,53,0,0,0
0,1405616978,673356,0,0,0,0,0,0,0,0,0,0,1.4822e-323,108.333,52,0,0,0
0,1405616979,674357,0,0,0,0,0,0,0,0,0,0,1.4822e-323,108.333,51,0,0,0
0,1405616980,675358,0,0,0,0,0,0,0,0,0,0,1.4822e-323,108.333,49,0,0,0
0,1405616981,676359,0,0,0,0,0,0,0,0,0,0,1.4822e-323,108.333,49,0,0,0
0,1405616982,677361,0,0,0,0,0,0,0,0,0,0,1.4822e-323,108.333,51,0,0,0
0,1405616983,678362,0,0,0,0,0,0,0,0,0,0,1.4822e-323,108.333,54,0,0,0
0,1405616984,679363,0,0,0,0,0,0,0,0,0,0,1.4822e-323,108.333,53,0,0,0
0,1405616985,680364,0,0,0,0,0,0,0,0,0,0,1.4822e-323,108.333,52,0,0,0
0,1405616986,681365,0,0,0,0,0,0,0,0,0,0,1.4822e-323,108.333,50,0,0,0
0,1405616987,682366,0,0,0,0,0,0,0,0,0,0,1.4822e-323,108.333,48,0,0,0
0,1405616988,683367,0,0,0,0,0,0,0,0,0,0,1.4822e-323,108.333,48,0,0,0
0,1405616989,684368,0,0,0,0,0,0,0,0,0,0,1.4822e-323,108.333,49,0,0,0
0,1405616990,685370,0,0,0,0,0,0,0,0,0,0,1.4822e-323,108.333,55,0,0,0
0,1405616991,686371,0,0,0,0,0,0,0,0,0,0,1.4822e-323,108.333,54,0,0,0
0,1405616992,687372,0,0,0,0,0,0,0,0,0,0,1.4822e-323,108.333,55,0,0,0
0,1405616993,688373,0,0,0,0,0,0,0,0,0,0,1.4822e-323,108.333,50,0,0,0
0,1405616994,689374,0,0,0,0,0,0,0,0,0,0,1.4822e-323,108.333,50,0,0,0
0,1405616995,690375,0,0,0,0,0,0,0,0,0,0,1.4822e-323,108.333,49,0,0,0
0,1405616996,691376,0,0,0,0,0,0,0,0,0,0,1.4822e-323,108.333,52,0,0,0
0,1405616997,692377,0,0,0,0,0,0,0,0,0,0,1.4822e-323,108.333,49,0,0,0
0,1405616998,693379,0,0,0,0,0,0,0,0,0,0,1.4822e-323,108.333,52,0,0,0
0,1405616999,694380,0,0,0,0,0,0,0,0,0,0,1.4822e-323,108.333,52,0,0,0
0,1405617000,695381,0,0,0,0,0,0,0,0,0,0,1.4822e-323,108.333,55,0,0,0
0,1405617001,696382,0,0,0,0,0,0,0,0,0,0,1.4822e-323,108.333,44,0,0,0
0,1405617002,697383,0,0,0,0,0,0,0,0,0,0,1.4822e-323,108.333,48,0,0,0
0,1405617003,698384,0,0,0,0,0,0,0,0,0,0,1.4822e-323,108.333,43,0,0,0
0,1405617004,699385,0,0,0,0,0,0,0,0,0,0,1.4822e-323,108.333,48,0,0,0
0,1405617005,700387,0,0,0,0,0,0,0,0,0,0,1.4822e-323,108.333,44,0,0,0
0,1405617006,701388,0,0,0,0,0,0,0,0,0,0,1.4822e-323,108.333,48,0,0,0
0,1405617007,702389,0,0,0,0,0,0,0,0,0,0,1.4822e-323,108.333,55,0,0,0
0,1405617008,703390,0,0,0,0,0,0,0,0,0,0,1.4822e-323,108.333,54,0,0,0
0,1405617009,704391,0,0,0,0,0,0,0,0,0,0,1.4822e-323,108.333,47,0,0,0
0,1405617010,705392,0,0,0,0,0,0,0,0,0,0,1.4822e-323,108.333,51,0,0,0
0,1405617011,706393,0,0,0,0,0,0,0,0,0,0,1.4822e-323,108.333,53,0,0,0
0,1405617012,707394,0,0,0,0,0,0,0,0,0,0,1.4822e-323,108.333,55,0,0,0
0,1405617013,708395,0,0,0,0,0,0,0,0,0,0,1.4822e-323,108.333,52,0,0,0
0,1405617014,709396,0,0,0,0,0,0,0,0,0,0,1.4822e-323,108.333,52,0,0,0
0,1405617015,710397,0,0,0,0,0,0,0,0,0,0,1.4822e-323,108.333,53,0,0,0
0,1405617016,711398,0,0,0,0,0,0,0,0,0,0,1.4822e-323,108.333,52,0,0,0
0,1405617017,712400,0,0,0,0,0,0,0,0,0,0,1.4822e-323,108.333,50,0,0,0
0,1405617018,713401,0,0,0,0,0,0,0,0,0,0,1.4822e-323,108.333,49,0,0,0
0,1405617019,714407,0,0,0,0,0,0,0,0,0,0,1.4822e-323,108.333,55,0,0,0
0,1405617020,715408,0,0,0,0,0,0,0,0,0,0,1.4822e-323,108.333,52,0,0,0
0,1405617021,716409,0,0,0,0,0,0,0,0,0,0,1.4822e-323,108.333,52,0,0,0
0,1405617022,717410,0,0,0,0,0,0,0,0,0,0,1.4822e-323,108.333,50,0,0,0
0,1405617023,718411,0,0,0,0,0,0,0,0,0,0,1.4822e-323,108.333,51,0,0,0
0,1405617024,719412,0,0,0,0,0,0,0,0,0,0,1.4822e-323,108.333,55,0,0,0
0,1405617025,720413,0,0,0,0,0,0,0,0,0,0,1.4822e-323,108.333,53,0,0,0
0,1405617026,721414,0,0,0,0,0,0,0,0,0,0,1.4822e-323,108.333,52,0,0,0
0,1405617027,722415,0,0,0,0,0,0,0,0,0,0,1.4822e-323,108.333,55,0,0,0
0,1405617028,723417,0,0,0,0,0,0,0,0,0,0,1.4822e-323,108.333,54,0,0,0
0,1405617029,724419,0,0,0,0,0,0,0,0,0,0,1.4822e-323,108.333,55,0,0,0
0,1405617030,725420,0,0,0,0,0,0,0,0,0,0,1.4822e-323,108.333,50,0,0,0
0,1405617031,726421,0,0,0,0,0,0,0,0,0,0,1.4822e-323,108.333,50,0,0,0
0,1405617032,727422,0,0,0,0,0,0,0,0,0,0,1.4822e-323,108.333,55,0,0,0
0,1405617033,728423,0,0,0,0,0,0,0,0,0,0,1.4822e-323,108.333,52,0,0,0
0,1405617034,729424,0,0,0,0,0,0,0,0,0,0,1.4822e-323,108.333,51,0,0,0
0,1405617035,730425,0,0,0,0,0,0,0,0,0,0,1.4822e-323,108.333,52,0,0,0
0,1405617036,731426,0,0,0,0,0,0,0,0,0,0,1.4822e-323,108.333,54,0,0,0
0,1405617037,732427,0,0,0,0,0,0,0,0,0,0,1.4822e-323,108.333,52,0,0,0
0,1405617038,733428,0,0,0,0,0,0,0,0,0,0,1.4822e-323,108.333,51,0,0,0
0,1405617039,734429,0,0,0,0,0,0,0,0,0,0,1.4822e-323,108.333,53,0,0,0
0,1405617040,735431,0,0,0,0,0,0,0,0,0,0,1.4822e-323,108.333,51,0,0,0
0,1405617041,736432,0,0,0,0,0,0,0,0,0,0,1.4822e-323,108.333,50,0,0,0
0,1405617042,737433,0,0,0,0,0,0,0,0,0,0,1.4822e-323,108.333,50,0,0,0
0,1405617043,738434,0,0,0,0,0,0,0,0,0,0,1.4822e-323,108.333,49,0,0,0
0,1405617044,739436,0,0,0,0,0,0,0,0,0,0,1.4822e-323,108.333,49,0,0,0
0,1405617045,740437,0,0,0,0,0,0,0,0,0,0,1.4822e-323,108.333,49,0,0,0
0,1405617046,741438,0,0,0,0,0,0,0,0,0,0,1.4822e-323,108.333,49,0,0,0
0,1405617047,742442,0,0,0,0,0,0,0,0,0,0,1.4822e-323,108.333,52,0,0,0
0,1405617048,743444,0,0,0,0,0,0,0,0,0,0,1.4822e-323,108.333,54,0,0,0
0,1405617049,744445,0,0,0,0,0,0,0,0,0,0,1.4822e-323,108.333,49,0,0,0
0,1405617050,745446,0,0,0,0,0,0,0,0,0,0,1.4822e-323,108.333,47,0,0,0
0,1405617051,746447,0,0,0,0,0,0,0,0,0,0,1.4822e-323,108.333,49,0,0,0
0,1405617052,747449,0,0,0,0,0,0,0,0,0,0,1.4822e-323,108.333,53,0,0,0
0,1405617053,748450,0,0,0,0,0,0,0,0,0,0,1.4822e-323,108.333,51,0,0,0
0,1405617054,749452,0,0,0,0,0,0,0,0,0,0,1.4822e-323,108.333,50,0,0,0
0,1405617055,750453,0,0,0,0,0,0,0,0,0,0,1.4822e-323,108.333,54,0,0,0
0,1405617056,751454,0,0,0,0,0,0,0,0,0,0,1.4822e-323,108.333,52,0,0,0
0,1405617057,752457,0,0,0,0,0,0,0,0,0,0,1.4822e-323,108.333,51,0,0,0
0,1405617058,753458,0,0,0,0,0,0,0,0,0,0,1.4822e-323,108.333,48,0,0,0
0,1405617059,754459,0,0,0,0,0,0,0,0,0,0,1.4822e-323,108.333,50,0,0,0
0,1405617060,755460,0,0,0,0,0,0,0,0,0,0,1.4822e-323,108.333,50,0,0,0
0,1405617061,756462,0,0,0,0,0,0,0,0,0,0,1.4822e-323,108.333,52,0,0,0
0,1405617062,757463,0,0,0,0,0,0,0,0,0,0,1.4822e-323,108.333,50,0,0,0
0,1405617063,758464,0,0,0,0,0,0,0,0,0,0,1.4822e-323,108.333,52,0,0,0
0,1405617064,759465,0,0,0,0,0,0,0,0,0,0,1.4822e-323,108.333,51,0,0,0
0,1405617065,760466,0,0,0,0,0,0,0,0,0,0,1.4822e-323,108.333,52,0,0,0
0,1405617066,761468,0,0,0,0,0,0,0,0,0,0,1.4822e-323,108.333,51,0,0,0
0,1405617067,762469,0,0,0,0,0,0,0,0,0,0,1.4822e-323,108.333,53,0,0,0
0,1405617068,763470,0,0,0,0,0,0,0,0,0,0,1.4822e-323,108.333,52,0,0,0
0,1405617069,764471,0,0,0,0,0,0,0,0,0,0,1.4822e-323,108.333,52,0,0,0
0,1405617070,765472,0,0,0,0,0,0,0,0,0,0,1.4822e-323,108.333,50,0,0,0
0,1405617071,766473,0,0,0,0,0,0,0,0,0,0,1.4822e-323,108.333,52,0,0,0
0,1405617072,767474,0,0,0,0,0,0,0,0,0,0,1.4822e-323,108.333,53,0,0,0
0,1405617073,768475,0,0,0,0,0,0,0,0,0,0,1.4822e-323,108.333,52,0,0,0
0,1405617074,769476,0,0,0,0,0,0,0,0,0,0,1.4822e-323,108.333,47,0,0,0
0,1405617075,770477,0,0,0,0,0,0,0,0,0,0,1.4822e-323,108.333,52,0,0,0
0,1405617076,771479,0,0,0,0,0,0,0,0,0,0,1.4822e-323,108.333,52,0,0,0
0,1405617077,772480,0,0,0,0,0,0,0,0,0,0,1.4822e-323,108.333,52,0,0,0
0,1405617078,773482,0,0,0,0,0,0,0,0,0,0,1.4822e-323,108.333,52,0,0,0
0,1405617079,774483,0,0,0,0,0,0,0,0,0,0,1.4822e-323,108.333,50,0,0,0
0,1405617080,775484,0,0,0,0,0,0,0,0,0,0,1.4822e-323,108.333,51,0,0,0
0,1405617081,776485,0,0,0,0,0,0,0,0,0,0,1.4822e-323,108.333,51,0,0,0
0,1405617082,777487,0,0,0,0,0,0,0,0,0,0,1.4822e-323,108.333,52,0,0,0
0,1405617083,778489,0,0,0,0,0,0,0,0,0,0,1.4822e-323,108.333,46,0,0,0
0,1405617084,779491,0,0,0,0,0,0,0,0,0,0,1.4822e-323,108.333,49,0,0,0
0,1405617085,780492,0,0,0,0,0,0,0,0,0,0,1.4822e-323,108.333,51,0,0,0
0,1405617086,781493,0,0,0,0,0,0,0,0,0,0,1.4822e-323,108.333,51,0,0,0
0,1405617087,782494,0,0,0,0,0,0,0,0,0,0,1.4822e-323,108.333,48,0,0,0
0,1405617088,783496,0,0,0,0,0,0,0,0,0,0,1.4822e-323,108.333,50,0,0,0
0,1405617089,784497,0,0,0,0,0,0,0,0,0,0,1.4822e-323,108.333,54,0,0,0
0,1405617090,785498,0,0,0,0,0,0,0,0,0,0,1.4822e-323,108.333,54,0,0,0
0,1405617091,786499,0,0,0,0,0,0,0,0,0,0,1.4822e-323,108.333,50,0,0,0
0,1405617092,787501,0,0,0,0,0,0,0,0,0,0,1.4822e-323,108.333,53,0,0,0
0,1405617093,788503,0,0,0,0,0,0,0,0,0,0,1.4822e-323,108.333,53,0,0,0
0,1405617094,789504,0,0,0,0,0,0,0,0,0,0,1.4822e-323,108.333,54,0,0,0
0,1405617095,790505,0,0,0,0,0,0,0,0,0,0,1.4822e-323,108.333,51,0,0,0
0,1405617096,791506,0,0,0,0,0,0,0,0,0,0,1.4822e-323,108.333,51,0,0,0
0,1405617097,792508,0,0,0,0,0,0,0,0,0,0,1.4822e-323,108.333,54,0,0,0
0,1405617098,793509,0,0,0,0,0,0,0,0,0,0,1.4822e-323,108.333,55,0,0,0
0,1405617099,794510,0,0,0,0,0,0,0,0,0,0,1.4822e-323,108.333,54,0,0,0
0,1405617100,795511,0,0,0,0,0,0,0,0,0,0,1.4822e-323,108.333,47,0,0,0
0,1405617101,796512,0,0,0,0,0,0,0,0,0,0,1.4822e-323,108.333,49,0,0,0
0,1405617102,797514,0,0,0,0,0,0,0,0,0,0,1.4822e-323,108.333,52,0,0,0
0,1405617103,798515,0,0,0,0,0,0,0,0,0,0,1.4822e-323,108.333,49,0,0,0
0,1405617104,799516,0,0,0,0,0,0,0,0,0,0,1.4822e-323,108.333,50,0,0,0
0,1405617105,800529,0,0,0,0,0,0,0,0,0,0,1.4822e-323,108.333,52,0,0,0
0,1405617106,801530,0,0,0,0,0,0,0,0,0,0,1.4822e-323,108.333,53,0,0,0
0,1405617107,802531,0,0,0,0,0,0,0,0,0,0,1.4822e-323,108.333,53,0,0,0
0,1405617108,803533,0,0,0,0,0,0,0,0,0,0,1.4822e-323,108.333,50,0,0,0
0,1405617109,804535,0,0,0,0,0,0,0,0,0,0,1.4822e-323,108.333,47,0,0,0
0,1405617110,805537,0,0,0,0,0,0,0,0,0,0,1.4822e-323,108.333,54,0,0,0
0,1405617111,806538,0,0,0,0,0,0,0,0,0,0,1.4822e-323,108.333,53,0,0,0
0,1405617112,807539,0,0,0,0,0,0,0,0,0,0,1.4822e-323,108.333,54,0,0,0
0,1405617113,808540,0,0,0,0,0,0,0,0,0,0,1.4822e-323,108.333,50,0,0,0
0,1405617114,809541,0,0,0,0,0,0,0,0,0,0,1.4822e-323,108.333,53,0,0,0
0,1405617115,810542,0,0,0,0,0,0,0,0,0,0,1.4822e-323,108.333,49,0,0,0
0,1405617116,811543,0,0,0,0,0,0,0,0,0,0,1.4822e-323,108.333,49,0,0,0
0,1405617117,812544,0,0,0,0,0,0,0,0,0,0,1.4822e-323,108.333,46,0,0,0
0,1405617118,813545,0,0,0,0,0,0,0,0,0,0,1.4822e-323,108.333,54,0,0,0
0,1405617119,814548,0,0,0,0,0,0,0,0,0,0,1.4822e-323,108.333,52,0,0,0
0,1405617120,815549,0,0,0,0,0,0,0,0,0,0,1.4822e-323,108.333,49,0,0,0
0,1405617121,816550,0,0,0,0,0,0,0,0,0,0,1.4822e-323,108.333,44,0,0,0
0,1405617122,817551,0,0,0,0,0,0,0,0,0,0,1.4822e-323,108.333,49,0,0,0
0,1405617123,818552,0,0,0,0,0,0,0,0,0,0,1.4822e-323,108.333,50,0,0,0
0,1405617124,819553,0,0,0,0,0,0,0,0,0,0,1.4822e-323,108.333,49,0,0,0
0,1405617125,820554,0,0,0,0,0,0,0,0,0,0,1.4822e-323,108.333,45,0,0,0
0,1405617126,821555,0,0,0,0,0,0,0,0,0,0,1.4822e-323,108.333,53,0,0,0
0,1405617127,822557,0,0,0,0,0,0,0,0,0,0,1.4822e-323,108.333,56,0,0,0
0,1405617128,823558,0,0,0,0,0,0,0,0,0,0,1.4822e-323,108.333,56,0,0,0
0,1405617129,824560,0,0,0,0,0,0,0,0,0,0,1.4822e-323,108.333,49,0,0,0
0,1405617130,825562,0,0,0,0,0,0,0,0,0,0,1.4822e-323,108.333,49,0,0,0
0,1405617131,826563,0,0,0,0,0,0,0,0,0,0,1.4822e-323,108.333,47,0,0,0
0,1405617132,827565,0,0,0,0,0,0,0,0,0,0,1.4822e-323,108.333,55,0,0,0
0,1405617133,828566,0,0,0,0,0,0,0,0,0,0,1.4822e-323,108.333,53,0,0,0
0,1405617134,829567,0,0,0,0,0,0,0,0,0,0,1.4822e-323,108.333,51,0,0,0
0,1405617135,830570,0,0,0,0,0,0,0,0,0,0,1.4822e-323,108.333,55,0,0,0
0,1405617136,831573,0,0,0,0,0,0,0,0,0,0,1.4822e-323,108.333,55,0,0,0
0,1405617137,832574,0,0,0,0,0,0,0,0,0,0,1.4822e-323,108.333,49,0,0,0
0,1405617138,833575,0,0,0,0,0,0,0,0,0,0,1.4822e-323,108.333,48,0,0,0
0,1405617139,834576,0,0,0,0,0,0,0,0,0,0,1.4822e-323,108.333,52,0,0,0
0,1405617140,835577,0,0,0,0,0,0,0,0,0,0,1.4822e-323,108.333,53,0,0,0
0,1405617141,836578,0,0,0,0,0,0,0,0,0,0,1.4822e-323,108.333,53,0,0,0
0,1405617142,837579,0,0,0,0,0,0,0,0,0,0,1.4822e-323,108.333,50,0,0,0
0,1405617143,838580,0,0,0,0,0,0,0,0,0,0,1.4822e-323,108.333,54,0,0,0
0,1405617144,839582,0,0,0,0,0,0,0,0,0,0,1.4822e-323,108.333,51,0,0,0
0,1405617145,840583,0,0,0,0,0,0,0,0,0,0,1.4822e-323,108.333,52,0,0,0
0,1405617146,841585,0,0,0,0,0,0,0,0,0,0,1.4822e-323,108.333,52,0,0,0
0,1405617147,842586,0,0,0,0,0,0,0,0,0,0,1.4822e-323,108.333,53,0,0,0
0,1405617148,843587,0,0,0,0,0,0,0,0,0,0,1.4822e-323,108.333,56,0,0,0
0,1405617149,844588,0,0,0,0,0,0,0,0,0,0,1.4822e-323,108.333,52,0,0,0
0,1405617150,845589,0,0,0,0,0,0,0,0,0,0,1.4822e-323,108.333,51,0,0,0
0,1405617151,846592,0,0,0,0,0,0,0,0,0,0,1.4822e-323,108.333,16,0,0,0
0,1405617152,847593,0,0,0,0,0,0,0,0,0,0,1.4822e-323,108.333,53,0,0,0
0,1405617153,848594,0,0,0,0,0,0,0,0,0,0,1.4822e-323,108.333,52,0,0,0
0,1405617154,849596,0,0,0,0,0,0,0,0,0,0,1.4822e-323,108.333,51,0,0,0
0,1405617155,850597,0,0,0,0,0,0,0,0,0,0,1.4822e-323,108.333,51,0,0,0
0,1405617156,851598,0,0,0,0,0,0,0,0,0,0,1.4822e-323,108.333,54,0,0,0
0,1405617157,852599,0,0,0,0,0,0,0,0,0,0,1.4822e-323,108.333,50,0,0,0
0,1405617158,853600,0,0,0,0,0,0,0,0,0,0,1.4822e-323,108.333,49,0,0,0
0,1405617159,854601,0,0,0,0,0,0,0,0,0,0,1.4822e-323,108.333,45,0,0,0
0,1405617160,855602,0,0,0,0,0,0,0,0,0,0,1.4822e-323,108.333,48,0,0,0
0,1405617161,856604,0,0,0,0,0,0,0,0,0,0,1.4822e-323,108.333,48,0,0,0
0,1405617162,857605,0,0,0,0,0,0,0,0,0,0,1.4822e-323,108.333,46,0,0,0
0,1405617163,858606,0,0,0,0,0,0,0,0,0,0,1.4822e-323,108.333,53,0,0,0
0,1405617164,859607,0,0,0,0,0,0,0,0,0,0,1.4822e-323,108.333,54,0,0,0
0,1405617165,860608,0,0,0,0,0,0,0,0,0,0,1.4822e-323,108.333,55,0,0,0
0,1405617166,861609,0,0,0,0,0,0,0,0,0,0,1.4822e-323,108.333,48,0,0,0
0,1405617167,862611,0,0,0,0,0,0,0,0,0,0,1.4822e-323,108.333,49,0,0,0
0,1405617168,863612,0,0,0,0,0,0,0,0,0,0,1.4822e-323,108.333,50,0,0,0
0,1405617169,864613,0,0,0,0,0,0,0,0,0,0,1.4822e-323,108.333,50,0,0,0
0,1405617170,865614,0,0,0,0,0,0,0,0,0,0,1.4822e-323,108.333,50,0,0,0
0,1405617171,866615,0,0,0,0,0,0,0,0,0,0,1.4822e-323,108.333,51,0,0,0
0,1405617172,867616,0,0,0,0,0,0,0,0,0,0,1.4822e-323,108.333,51,0,0,0
0,1405617173,868618,0,0,0,0,0,0,0,0,0,0,1.4822e-323,108.333,50,0,0,0
0,1405617174,869619,0,0,0,0,0,0,0,0,0,0,1.4822e-323,108.333,50,0,0,0
0,1405617175,870620,0,0,0,0,0,0,0,0,0,0,1.4822e-323,108.333,52,0,0,0
0,1405617176,871621,0,0,0,0,0,0,0,0,0,0,1.4822e-323,108.333,51,0,0,0
0,1405617177,872623,0,0,0,0,0,0,0,0,0,0,1.4822e-323,108.333,51,0,0,0
0,1405617178,873625,0,0,0,0,0,0,0,0,0,0,1.4822e-323,108.333,49,0,0,0
0,1405617179,874627,0,0,0,0,0,0,0,0,0,0,1.4822e-323,108.333,52,0,0,0
0,1405617180,875629,0,0,0,0,0,0,0,0,0,0,1.4822e-323,108.333,52,0,0,0
0,1405617181,876630,0,0,0,0,0,0,0,0,0,0,1.4822e-323,108.333,53,0,0,0
0,1405617182,877632,0,0,0,0,0,0,0,0,0,0,1.4822e-323,108.333,48,0,0,0
0,1405617183,878633,0,0,0,0,0,0,0,0,0,0,1.4822e-323,108.333,50,0,0,0
0,1405617184,879635,0,0,0,0,0,0,0,0,0,0,1.4822e-323,108.333,50,0,0,0
0,1405617185,880637,0,0,0,0,0,0,0,0,0,0,1.4822e-323,108.333,53,0,0,0
0,1405617186,881638,0,0,0,0,0,0,0,0,0,0,1.4822e-323,108.333,15,0,0,0
0,1405617187,882639,0,0,0,0,0,0,0,0,0,0,1.4822e-323,108.333,52,0,0,0
0,1405617188,883640,0,0,0,0,0,0,0,0,0,0,1.4822e-323,108.333,47,0,0,0
0,1405617189,884641,0,0,0,0,0,0,0,0,0,0,1.4822e-323,108.333,49,0,0,0
0,1405617190,885642,0,0,0,0,0,0,0,0,0,0,1.4822e-323,108.333,47,0,0,0
0,1405617191,886644,0,0,0,0,0,0,0,0,0,0,1.4822e-323,108.333,56,0,0,0
0,1405617192,887645,0,0,0,0,0,0,0,0,0,0,1.4822e-323,108.333,55,0,0,0
0,1405617193,888647,0,0,0,0,0,0,0,0,0,0,1.4822e-323,108.333,51,0,0,0
0,1405617194,889648,0,0,0,0,0,0,0,0,0,0,1.4822e-323,108.333,50,0,0,0
0,1405617195,890649,0,0,0,0,0,0,0,0,0,0,1.4822e-323,108.333,53,0,0,0
0,1405617196,891651,0,0,0,0,0,0,0,0,0,0,1.4822e-323,108.333,54,0,0,0
0,1405617197,892653,0,0,0,0,0,0,0,0,0,0,1.4822e-323,108.333,51,0,0,0
0,1405617198,893654,0,0,0,0,0,0,0,0,0,0,1.4822e-323,108.333,52,0,0,0
0,1405617199,894655,0,0,0,0,0,0,0,0,0,0,1.4822e-323,108.333,49,0,0,0
0,1405617200,895657,0,0,0,0,0,0,0,0,0,0,1.4822e-323,108.333,50,0,0,0
0,1405617201,896658,0,0,0,0,0,0,0,0,0,0,1.4822e-323,108.333,48,0,0,0
0,1405617202,897660,0,0,0,0,0,0,0,0,0,0,1.4822e-323,108.333,51,0,0,0
0,1405617203,898661,0,0,0,0,0,0,0,0,0,0,1.4822e-323,108.333,49,0,0,0
0,1405617204,899665,0,0,0,0,0,0,0,0,0,0,1.4822e-323,108.333,51,0,0,0
0,1405617205,900666,0,0,0,0,0,0,0,0,0,0,1.4822e-323,108.333,50,0,0,0
0,1405617206,901667,0,0,0,0,0,0,0,0,0,0,1.4822e-323,108.333,52,0,0,0
0,1405617207,902668,0,0,0,0,0,0,0,0,0,0,1.4822e-323,108.333,50,0,0,0
0,1405617208,903669,0,0,0,0,0,0,0,0,0,0,1.4822e-323,108.333,51,0,0,0
0,1405617209,904670,0,0,0,0,0,0,0,0,0,0,1.4822e-323,108.333,51,0,0,0
0,1405617210,905671,0,0,0,0,0,0,0,0,0,0,1.4822e-323,108.333,51,0,0,0
0,1405617211,906672,0,0,0,0,0,0,0,0,0,0,1.4822e-323,108.333,54,0,0,0
0,1405617212,907673,0,0,0,0,0,0,0,0,0,0,1.4822e-323,108.333,55,0,0,0
0,1405617213,908674,0,0,0,0,0,0,0,0,0,0,1.4822e-323,108.333,55,0,0,0
0,1405617214,909675,0,0,0,0,0,0,0,0,0,0,1.4822e-323,108.333,52,0,0,0
0,1405617215,910676,0,0,0,0,0,0,0,0,0,0,1.4822e-323,108.333,53,0,0,0
0,1405617216,911678,0,0,0,0,0,0,0,0,0,0,1.4822e-323,108.333,49,0,0,0
0,1405617217,912679,0,0,0,0,0,0,0,0,0,0,1.4822e-323,108.333,48,0,0,0
0,1405617218,913680,0,0,0,0,0,0,0,0,0,0,1.4822e-323,108.333,50,0,0,0
0,1405617219,914681,0,0,0,0,0,0,0,0,0,0,1.4822e-323,108.333,54,0,0,0
0,1405617220,915682,0,0,0,0,0,0,0,0,0,0,1.4822e-323,108.333,53,0,0,0
0,1405617221,916683,0,0,0,0,0,0,0,0,0,0,1.4822e-323,108.333,52,0,0,0
0,1405617222,917684,0,0,0,0,0,0,0,0,0,0,1.4822e-323,108.333,53,0,0,0
0,1405617223,918685,0,0,0,0,0,0,0,0,0,0,1.4822e-323,108.333,52,0,0,0
0,1405617224,919686,0,0,0,0,0,0,0,0,0,0,1.4822e-323,108.333,49,0,0,0
0,1405617225,920687,0,0,0,0,0,0,0,0,0,0,1.4822e-323,108.333,48,0,0,0
0,1405617226,921688,0,0,0,0,0,0,0,0,0,0,1.4822e-323,108.333,53,0,0,0
0,1405617227,922690,0,0,0,0,0,0,0,0,0,0,1.4822e-323,108.333,52,0,0,0
0,1405617228,923692,0,0,0,0,0,0,0,0,0,0,1.4822e-323,108.333,52,0,0,0
0,1405617229,924693,0,0,0,0,0,0,0,0,0,0,1.4822e-323,108.333,50,0,0,0
0,1405617230,925694,0,0,0,0,0,0,0,0,0,0,1.4822e-323,108.333,51,0,0,0
0,1405617231,926695,0,0,0,0,0,0,0,0,0,0,1.4822e-323,108.333,47,0,0,0
0,1405617232,927696,0,0,0,0,0,0,0,0,0,0,1.4822e-323,108.333,49,0,0,0
0,1405617233,928697,0,0,0,0,0,0,0,0,0,0,1.4822e-323,108.333,54,0,0,0
0,1405617234,929698,0,0,0,0,0,0,0,0,0,0,1.4822e-323,108.333,55,0,0,0
0,1405617235,930701,0,0,0,0,0,0,0,0,0,0,1.4822e-323,108.333,52,0,0,0
0,1405617236,931702,0,0,0,0,0,0,0,0,0,0,1.4822e-323,108.333,50,0,0,0
0,1405617237,932703,0,0,0,0,0,0,0,0,0,0,1.4822e-323,108.333,48,0,0,0
0,1405617238,933704,0,0,0,0,0,0,0,0,0,0,1.4822e-323,108.333,51,0,0,0
0,1405617239,934705,0,0,0,0,0,0,0,0,0,0,1.4822e-323,108.333,44,0,0,0
0,1405617240,935706,0,0,0,0,0,0,0,0,0,0,1.4822e-323,108.333,47,0,0,0
0,1405617241,936707,0,0,0,0,0,0,0,0,0,0,1.4822e-323,108.333,43,0,0,0
0,1405617242,937708,0,0,0,0,0,0,0,0,0,0,1.4822e-323,108.333,54,0,0,0
0,1405617243,938709,0,0,0,0,0,0,0,0,0,0,1.4822e-323,108.333,52,0,0,0
0,1405617244,939710,0,0,0,0,0,0,0,0,0,0,1.4822e-323,108.333,53,0,0,0
0,1405617245,940711,0,0,0,0,0,0,0,0,0,0,1.4822e-323,108.333,52,0,0,0
0,1405617246,941712,0,0,0,0,0,0,0,0,0,0,1.4822e-323,108.333,49,0,0,0
0,1405617247,942713,0,0,0,0,0,0,0,0,0,0,1.4822e-323,108.333,55,0,0,0
0,1405617248,943714,0,0,0,0,0,0,0,0,0,0,1.4822e-323,108.333,53,0,0,0
0,1405617249,944719,0,0,0,0,0,0,0,0,0,0,1.4822e-323,108.333,52,0,0,0
0,1405617250,945720,0,0,0,0,0,0,0,0,0,0,1.4822e-323,108.333,54,0,0,0
0,1405617251,946721,0,0,0,0,0,0,0,0,0,0,1.4822e-323,108.333,54,0,0,0
0,1405617252,947723,0,0,0,0,0,0,0,0,0,0,1.4822e-323,108.333,53,0,0,0
0,1405617253,948724,0,0,0,0,0,0,0,0,0,0,1.4822e-323,108.333,51,0,0,0
0,1405617254,949725,0,0,0,0,0,0,0,0,0,0,1.4822e-323,108.333,50,0,0,0
0,1405617255,950726,0,0,0,0,0,0,0,0,0,0,1.4822e-323,108.333,52,0,0,0
0,1405617256,951728,0,0,0,0,0,0,0,0,0,0,1.4822e-323,108.333,49,0,0,0
0,1405617257,952729,0,0,0,0,0,0,0,0,0,0,1.4822e-323,108.333,52,0,0,0
0,1405617258,953730,0,0,0,0,0,0,0,0,0,0,1.4822e-323,108.333,50,0,0,0
0,1405617259,954731,0,0,0,0,0,0,0,0,0,0,1.4822e-323,108.333,55,0,0,0
0,1405617260,955732,0,0,0,0,0,0,0,0,0,0,1.4822e-323,108.333,51,0,0,0
0,1405617261,956733,0,0,0,0,0,0,0,0,0,0,1.4822e-323,108.333,51,0,0,0
0,1405617262,957735,0,0,0,0,0,0,0,0,0,0,1.4822e-323,108.333,55,0,0,0
0,1405617263,958740,0,0,0,0,0,0,0,0,0,0,1.4822e-323,108.333,54,0,0,0
0,1405617264,959742,0,0,0,0,0,0,0,0,0,0,1.4822e-323,108.333,51,0,0,0
0,1405617265,960744,0,0,0,0,0,0,0,0,0,0,1.4822e-323,108.333,52,0,0,0
0,1405617266,961745,0,0,0,0,0,0,0,0,0,0,1.4822e-323,108.333,52,0,0,0
0,1405617267,962746,0,0,0,0,0,0,0,0,0,0,1.4822e-323,108.333,50,0,0,0
0,1405617268,963747,0,0,0,0,0,0,0,0,0,0,1.4822e-323,108.333,50,0,0,0
0,1405617269,964748,0,0,0,0,0,0,0,0,0,0,1.4822e-323,108.333,49,0,0,0
0,1405617270,965750,0,0,0,0,0,0,0,0,0,0,1.4822e-323,108.333,54,0,0,0
0,1405617271,966751,0,0,0,0,0,0,0,0,0,0,1.4822e-323,108.333,54,0,0,0
0,1405617272,967752,0,0,0,0,0,0,0,0,0,0,1.4822e-323,108.333,54,0,0,0
0,1405617273,968754,0,0,0,0,0,0,0,0,0,0,1.4822e-323,108.333,49,0,0,0
0,1405617274,969755,0,0,0,0,0,0,0,0,0,0,1.4822e-323,108.333,53,0,0,0
0,1405617275,970756,0,0,0,0,0,0,0,0,0,0,1.4822e-323,108.333,54,0,0,0
0,1405617276,971757,0,0,0,0,0,0,0,0,0,0,1.4822e-323,108.333,46,0,0,0
0,1405617277,972758,0,0,0,0,0,0,0,0,0,0,1.4822e-323,108.333,48,0,0,0
0,1405617278,973759,0,0,0,0,0,0,0,0,0,0,1.4822e-323,108.333,49,0,0,0
0,1405617279,974760,0,0,0,0,0,0,0,0,0,0,1.4822e-323,108.333,51,0,0,0
0,1405617280,975761,0,0,0,0,0,0,0,0,0,0,1.4822e-323,108.333,51,0,0,0
0,1405617281,976762,0,0,0,0,0,0,0,0,0,0,1.4822e-323,108.333,49,0,0,0
0,1405617282,977763,0,0,0,0,0,0,0,0,0,0,1.4822e-323,108.333,46,0,0,0
0,1405617283,978764,0,0,0,0,0,0,0,0,0,0,1.4822e-323,108.333,50,0,0,0
0,1405617284,979765,0,0,0,0,0,0,0,0,0,0,1.4822e-323,108.333,49,0,0,0
0,1405617285,980766,0,0,0,0,0,0,0,0,0,0,1.4822e-323,108.333,52,0,0,0
0,1405617286,981768,0,0,0,0,0,0,0,0,0,0,1.4822e-323,108.333,51,0,0,0
0,1405617287,982769,0,0,0,0,0,0,0,0,0,0,1.4822e-323,108.333,55,0,0,0
0,1405617288,983771,0,0,0,0,0,0,0,0,0,0,1.4822e-323,108.333,51,0,0,0
0,1405617289,984772,0,0,0,0,0,0,0,0,0,0,1.4822e-323,108.333,55,0,0,0
0,1405617290,985773,0,0,0,0,0,0,0,0,0,0,1.4822e-323,108.333,44,0,0,0
0,1405617291,986774,0,0,0,0,0,0,0,0,0,0,1.4822e-323,108.333,49,0,0,0
0,1405617292,987775,0,0,0,0,0,0,0,0,0,0,1.4822e-323,108.333,53,0,0,0
0,1405617293,988776,0,0,0,0,0,0,0,0,0,0,1.4822e-323,108.333,52,0,0,0
0,1405617294,989778,0,0,0,0,0,0,0,0,0,0,1.4822e-323,108.333,49,0,0,0
0,1405617295,990779,0,0,0,0,0,0,0,0,0,0,1.4822e-323,108.333,54,0,0,0
0,1405617296,991780,0,0,0,0,0,0,0,0,0,0,1.4822e-323,108.333,52,0,0,0
0,1405617297,992782,0,0,0,0,0,0,0,0,0,0,1.4822e-323,108.333,53,0,0,0
0,1405617298,993783,0,0,0,0,0,0,0,0,0,0,1.4822e-323,108.333,52,0,0,0
0,1405617299,994784,0,0,0,0,0,0,0,0,0,0,1.4822e-323,108.333,52,0,0,0
0,1405617300,995786,0,0,0,0,0,0,0,0,0,0,1.4822e-323,108.333,50,0,0,0
0,1405617301,996787,0,0,0,0,0,0,0,0,0,0,1.4822e-323,108.333,52,0,0,0
0,1405617302,997788,0,0,0,0,0,0,0,0,0,0,1.4822e-323,108.333,52,0,0,0
0,1405617303,998789,0,0,0,0,0,0,0,0,0,0,1.4822e-323,108.333,52,0,0,0
0,1405617304,999790,0,0,0,0,0,0,0,0,0,0,1.4822e-323,108.333,51,0,0,0
0,1405617305,1000791,0,0,0,0,0,0,0,0,0,0,1.4822e-323,108.333,53,0,0,0
0,1405617306,1001793,0,0,0,0,0,0,0,0,0,0,1.4822e-323,108.333,46,0,0,0
0,1405617307,1002795,0,0,0,0,0,0,0,0,0,0,1.4822e-323,108.333,53,0,0,0
0,1405617308,1003796,0,0,0,0,0,0,0,0,0,0,1.4822e-323,108.333,50,0,0,0
0,1405617309,1004797,0,0,0,0,0,0,0,0,0,0,1.4822e-323,108.333,52,0,0,0
0,1405617310,1005798,0,0,0,0,0,0,0,0,0,0,1.4822e-323,108.333,52,0,0,0
0,1405617311,1006799,0,0,0,0,0,0,0,0,0,0,1.4822e-323,108.333,51,0,0,0
0,1405617312,1007800,0,0,0,0,0,0,0,0,0,0,1.4822e-323,108.333,55,0,0,0
0,1405617313,1008801,0,0,0,0,0,0,0,0,0,0,1.4822e-323,108.333,56,0,0,0
0,1405617314,1009802,0,0,0,0,0,0,0,0,0,0,1.4822e-323,108.333,54,0,0,0
0,1405617315,1010805,0,0,0,0,0,0,0,0,0,0,1.4822e-323,108.333,49,0,0,0
0,1405617316,1011806,0,0,0,0,0,0,0,0,0,0,1.4822e-323,108.333,51,0,0,0
0,1405617317,1012807,0,0,0,0,0,0,0,0,0,0,1.4822e-323,108.333,53,0,0,0
0,1405617318,1013808,0,0,0,0,0,0,0,0,0,0,1.4822e-323,108.333,46,0,0,0
0,1405617319,1014809,0,0,0,0,0,0,0,0,0,0,1.4822e-323,108.333,46,0,0,0
0,1405617320,1015811,0,0,0,0,0,0,0,0,0,0,1.4822e-323,108.333,47,0,0,0
0,1405617321,1016812,0,0,0,0,0,0,0,0,0,0,1.4822e-323,108.333,52,0,0,0
0,1405617322,1017814,0,0,0,0,0,0,0,0,0,0,1.4822e-323,108.333,54,0,0,0
0,1405617323,1018815,0,0,0,0,0,0,0,0,0,0,1.4822e-323,108.333,49,0,0,0
0,1405617324,1019817,0,0,0,0,0,0,0,0,0,0,1.4822e-323,108.333,54,0,0,0
0,1405617325,1020819,0,0,0,0,0,0,0,0,0,0,1.4822e-323,108.333,52,0,0,0
0,1405617326,1021820,0,0,0,0,0,0,0,0,0,0,1.4822e-323,108.333,50,0,0,0
0,1405617327,1022821,0,0,0,0,0,0,0,0,0,0,1.4822e-323,108.333,53,0,0,0
0,1405617328,1023823,0,0,0,0,0,0,0,0,0,0,1.4822e-323,108.333,52,0,0,0
0,1405617329,1024824,0,0,0,0,0,0,0,0,0,0,1.4822e-323,108.333,52,0,0,0
0,1405617330,1025825,0,0,0,0,0,0,0,0,0,0,1.4822e-323,108.333,53,0,0,0
0,1405617331,1026826,0,0,0,0,0,0,0,0,0,0,1.4822e-323,108.333,53,0,0,0
0,1405617332,1027827,0,0,0,0,0,0,0,0,0,0,1.4822e-323,108.333,52,0,0,0
0,1405617333,1028828,0,0,0,0,0,0,0,0,0,0,1.4822e-323,108.333,52,0,0,0
0,1405617334,1029829,0,0,0,0,0,0,0,0,0,0,1.4822e-323,108.333,51,0,0,0
0,1405617335,1030830,0,0,0,0,0,0,0,0,0,0,1.4822e-323,108.333,49,0,0,0
0,1405617336,1031831,0,0,0,0,0,0,0,0,0,0,1.4822e-323,108.333,51,0,0,0
0,1405617337,1032832,0,0,0,0,0,0,0,0,0,0,1.4822e-323,108.333,52,0,0,0
0,1405617338,1033833,0,0,0,0,0,0,0,0,0,0,1.4822e-323,108.333,48,0,0,0
0,1405617339,1034835,0,0,0,0,0,0,0,0,0,0,1.4822e-323,108.333,49,0,0,0
0,1405617340,1035836,0,0,0,0,0,0,0,0,0,0,1.4822e-323,108.333,54,0,0,0
0,1405617341,1036837,0,0,0,0,0,0,0,0,0,0,1.4822e-323,108.333,53,0,0,0
0,1405617342,1037838,0,0,0,0,0,0,0,0,0,0,1.4822e-323,108.333,53,0,0,0
0,1405617343,1038839,0,0,0,0,0,0,0,0,0,0,1.4822e-323,108.333,49,0,0,0
0,1405617344,1039840,0,0,0,0,0,0,0,0,0,0,1.4822e-323,108.333,53,0,0,0
0,1405617345,1040841,0,0,0,0,0,0,0,0,0,0,1.4822e-323,108.333,51,0,0,0
0,1405617346,1041842,0,0,0,0,0,0,0,0,0,0,1.4822e-323,108.333,50,0,0,0
0,1405617347,1042843,0,0,0,0,0,0,0,0,0,0,1.4822e-323,108.333,49,0,0,0
0,1405617348,1043844,0,0,0,0,0,0,0,0,0,0,1.4822e-323,108.333,50,0,0,0
0,1405617349,1044845,0,0,0,0,0,0,0,0,0,0,1.4822e-323,108.333,52,0,0,0
0,1405617350,1045846,0,0,0,0,0,0,0,0,0,0,1.4822e-323,108.333,53,0,0,0
0,1405617351,1046847,0,0,0,0,0,0,0,0,0,0,1.4822e-323,108.333,52,0,0,0
0,1405617352,1047848,0,0,0,0,0,0,0,0,0,0,1.4822e-323,108.333,52,0,0,0
0,1405617353,1048849,0,0,0,0,0,0,0,0,0,0,1.4822e-323,108.333,52,0,0,0
0,1405617354,1049850,0,0,0,0,0,0,0,0,0,0,1.4822e-323,108.333,47,0,0,0
0,1405617355,1050851,0,0,0,0,0,0,0,0,0,0,1.4822e-323,108.333,46,0,0,0
0,1405617356,1051852,0,0,0,0,0,0,0,0,0,0,1.4822e-323,108.333,49,0,0,0
0,1405617357,1052853,0,0,0,0,0,0,0,0,0,0,1.4822e-323,108.333,47,0,0,0
0,1405617358,1053854,0,0,0,0,0,0,0,0,0,0,1.4822e-323,108.333,48,0,0,0
0,1405617359,1054856,0,0,0,0,0,0,0,0,0,0,1.4822e-323,108.333,46,0,0,0
0,1405617360,1055857,0,0,0,0,0,0,0,0,0,0,1.4822e-323,108.333,54,0,0,0
0,1405617361,1056859,0,0,0,0,0,0,0,0,0,0,1.4822e-323,108.333,53,0,0,0
0,1405617362,1057860,0,0,0,0,0,0,0,0,0,0,1.4822e-323,108.333,52,0,0,0
0,1405617363,1058861,0,0,0,0,0,0,0,0,0,0,1.4822e-323,108.333,54,0,0,0
0,1405617364,1059863,0,0,0,0,0,0,0,0,0,0,1.4822e-323,108.333,52,0,0,0
0,1405617365,1060865,0,0,0,0,0,0,0,0,0,0,1.4822e-323,108.333,52,0,0,0
0,1405617366,1061866,0,0,0,0,0,0,0,0,0,0,1.4822e-323,108.333,53,0,0,0
0,1405617367,1062867,0,0,0,0,0,0,0,0,0,0,1.4822e-323,108.333,53,0,0,0
0,1405617368,1063868,0,0,0,0,0,0,0,0,0,0,1.4822e-323,108.333,52,0,0,0
0,1405617369,1064869,0,0,0,0,0,0,0,0,0,0,1.4822e-323,108.333,50,0,0,0
0,1405617370,1065871,0,0,0,0,0,0,0,0,0,0,1.4822e-323,108.333,49,0,0,0
0,1405617371,1066872,0,0,0,0,0,0,0,0,0,0,1.4822e-323,108.333,53,0,0,0
0,1405617372,1067873,0,0,0,0,0,0,0,0,0,0,1.4822e-323,108.333,53,0,0,0
0,1405617373,1068874,0,0,0,0,0,0,0,0,0,0,1.4822e-323,108.333,56,0,0,0
0,1405617374,1069875,0,0,0,0,0,0,0,0,0,0,1.4822e-323,108.333,50,0,0,0
0,1405617375,1070888,0,0,0,0,0,0,0,0,0,0,1.4822e-323,108.333,52,0,0,0
0,1405617376,1071890,0,0,0,0,0,0,0,0,0,0,1.4822e-323,108.333,50,0,0,0
0,1405617377,1072891,0,0,0,0,0,0,0,0,0,0,1.4822e-323,108.333,49,0,0,0
0,1405617378,1073892,0,0,0,0,0,0,0,0,0,0,1.4822e-323,108.333,49,0,0,0
0,1405617379,1074893,0,0,0,0,0,0,0,0,0,0,1.4822e-323,108.333,51,0,0,0
0,1405617380,1075895,0,0,0,0,0,0,0,0,0,0,1.4822e-323,108.333,55,0,0,0
0,1405617381,1076896,0,0,0,0,0,0,0,0,0,0,1.4822e-323,108.333,55,0,0,0
0,1405617382,1077898,0,0,0,0,0,0,0,0,0,0,1.4822e-323,108.333,55,0,0,0
0,1405617383,1078900,0,0,0,0,0,0,0,0,0,0,1.4822e-323,108.333,49,0,0,0
0,1405617384,1079901,0,0,0,0,0,0,0,0,0,0,1.4822e-323,108.333,48,0,0,0
0,1405617385,1080902,0,0,0,0,0,0,0,0,0,0,1.4822e-323,108.333,49,0,0,0
0,1405617386,1081903,0,0,0,0,0,0,0,0,0,0,1.4822e-323,108.333,52,0,0,0
0,1405617387,1082905,0,0,0,0,0,0,0,0,0,0,1.4822e-323,108.333,52,0,0,0
0,1405617388,1083906,0,0,0,0,0,0,0,0,0,0,1.4822e-323,108.333,53,0,0,0
0,1405617389,1084907,0,0,0,0,0,0,0,0,0,0,1.4822e-323,108.333,52,0,0,0
0,1405617390,1085908,0,0,0,0,0,0,0,0,0,0,1.4822e-323,108.333,55,0,0,0
0,1405617391,1086911,0,0,0,0,0,0,0,0,0,0,1.4822e-323,108.333,47,0,0,0
0,1405617392,1087912,0,0,0,0,0,0,0,0,0,0,1.4822e-323,108.333,49,0,0,0
0,1405617393,1088913,0,0,0,0,0,0,0,0,0,0,1.4822e-323,108.333,48,0,0,0
0,1405617394,1089914,0,0,0,0,0,0,0,0,0,0,1.4822e-323,108.333,46,0,0,0
0,1405617395,1090916,0,0,0,0,0,0,0,0,0,0,1.4822e-323,108.333,49,0,0,0
0,1405617396,1091917,0,0,0,0,0,0,0,0,0,0,1.4822e-323,108.333,47,0,0,0
0,1405617397,1092918,0,0,0,0,0,0,0,0,0,0,1.4822e-323,108.333,53,0,0,0
0,1405617398,1093919,0,0,0,0,0,0,0,0,0,0,1.4822e-323,108.333,51,0,0,0
0,1405617399,1094920,0,0,0,0,0,0,0,0,0,0,1.4822e-323,108.333,49,0,0,0
0,1405617400,1095921,0,0,0,0,0,0,0,0,0,0,1.4822e-323,108.333,50,0,0,0
0,1405617401,1096923,0,0,0,0,0,0,0,0,0,0,1.4822e-323,108.333,55,0,0,0
0,1405617402,1097924,0,0,0,0,0,0,0,0,0,0,1.4822e-323,108.333,56,0,0,0
0,1405617403,1098925,0,0,0,0,0,0,0,0,0,0,1.4822e-323,108.333,51,0,0,0
0,1405617404,1099926,0,0,0,0,0,0,0,0,0,0,1.4822e-323,108.333,49,0,0,0
0,1405617405,1100927,0,0,0,0,0,0,0,0,0,0,1.4822e-323,108.333,53,0,0,0
0,1405617406,1101928,0,0,0,0,0,0,0,0,0,0,1.4822e-323,108.333,46,0,0,0
0,1405617407,1102929,0,0,0,0,0,0,0,0,0,0,1.4822e-323,108.333,50,0,0,0
0,1405617408,1103930,0,0,0,0,0,0,0,0,0,0,1.4822e-323,108.333,51,0,0,0
0,1405617409,1104931,0,0,0,0,0,0,0,0,0,0,1.4822e-323,108.333,54,0,0,0
0,1405617410,1105932,0,0,0,0,0,0,0,0,0,0,1.4822e-323,108.333,49,0,0,0
0,1405617411,1106933,0,0,0,0,0,0,0,0,0,0,1.4822e-323,108.333,53,0,0,0
0,1405617412,1107934,0,0,0,0,0,0,0,0,0,0,1.4822e-323,108.333,50,0,0,0
0,1405617413,1108935,0,0,0,0,0,0,0,0,0,0,1.4822e-323,108.333,52,0,0,0
0,1405617414,1109936,0,0,0,0,0,0,0,0,0,0,1.4822e-323,108.333,50,0,0,0
0,1405617415,1110937,0,0,0,0,0,0,0,0,0,0,1.4822e-323,108.333,53,0,0,0
0,1405617416,1111939,0,0,0,0,0,0,0,0,0,0,1.4822e-323,108.333,51,0,0,0
0,1405617417,1112940,0,0,0,0,0,0,0,0,0,0,1.4822e-323,108.333,54,0,0,0
0,1405617418,1113941,0,0,0,0,0,0,0,0,0,0,1.4822e-323,108.333,55,0,0,0
0,1405617419,1114944,0,0,0,0,0,0,0,0,0,0,1.4822e-323,108.333,52,0,0,0
0,1405617420,1115945,0,0,0,0,0,0,0,0,0,0,1.4822e-323,108.333,49,0,0,0
0,1405617421,1116946,0,0,0,0,0,0,0,0,0,0,1.4822e-323,108.333,49,0,0,0
0,1405617422,1117947,0,0,0,0,0,0,0,0,0,0,1.4822e-323,108.333,51,0,0,0
0,1405617423,1118949,0,0,0,0,0,0,0,0,0,0,1.4822e-323,108.333,49,0,0,0
0,1405617424,1119950,0,0,0,0,0,0,0,0,0,0,1.4822e-323,108.333,52,0,0,0
0,1405617425,1120951,0,0,0,0,0,0,0,0,0,0,1.4822e-323,108.333,54,0,0,0
0,1405617426,1121952,0,0,0,0,0,0,0,0,0,0,1.4822e-323,108.333,55,0,0,0
0,1405617427,1122953,0,0,0,0,0,0,0,0,0,0,1.4822e-323,108.333,47,0,0,0
0,1405617428,1123957,0,0,0,0,0,0,0,0,0,0,1.4822e-323,108.333,51,0,0,0
0,1405617429,1124959,0,0,0,0,0,0,0,0,0,0,1.4822e-323,108.333,51,0,0,0
0,1405617430,1125961,0,0,0,0,0,0,0,0,0,0,1.4822e-323,108.333,54,0,0,0
0,1405617431,1126962,0,0,0,0,0,0,0,0,0,0,1.4822e-323,108.333,51,0,0,0
0,1405617432,1127963,0,0,0,0,0,0,0,0,0,0,1.4822e-323,108.333,52,0,0,0
0,1405617433,1128964,0,0,0,0,0,0,0,0,0,0,1.4822e-323,108.333,51,0,0,0
0,1405617434,1129965,0,0,0,0,0,0,0,0,0,0,1.4822e-323,108.333,49,0,0,0
0,1405617435,1130967,0,0,0,0,0,0,0,0,0,0,1.4822e-323,108.333,46,0,0,0
0,1405617436,1131968,0,0,0,0,0,0,0,0,0,0,1.4822e-323,108.333,45,0,0,0
0,1405617437,1132971,0,0,0,0,0,0,0,0,0,0,1.4822e-323,108.333,54,0,0,0
0,1405617438,1133972,0,0,0,0,0,0,0,0,0,0,1.4822e-323,108.333,54,0,0,0
0,1405617439,1134973,0,0,0,0,0,0,0,0,0,0,1.4822e-323,108.333,49,0,0,0
0,1405617440,1135974,0,0,0,0,0,0,0,0,0,0,1.4822e-323,108.333,53,0,0,0
0,1405617441,1136975,0,0,0,0,0,0,0,0,0,0,1.4822e-323,108.333,53,0,0,0
0,1405617442,1137976,0,0,0,0,0,0,0,0,0,0,1.4822e-323,108.333,52,0,0,0
0,1405617443,1138977,0,0,0,0,0,0,0,0,0,0,1.4822e-323,108.333,51,0,0,0
0,1405617444,1139978,0,0,0,0,0,0,0,0,0,0,1.4822e-323,108.333,52,0,0,0
0,1405617445,1140979,0,0,0,0,0,0,0,0,0,0,1.4822e-323,108.333,55,0,0,0
0,1405617446,1141980,0,0,0,0,0,0,0,0,0,0,1.4822e-323,108.333,55,0,0,0
0,1405617447,1142983,0,0,0,0,0,0,0,0,0,0,1.4822e-323,108.333,53,0,0,0
0,1405617448,1143985,0,0,0,0,0,0,0,0,0,0,1.4822e-323,108.333,51,0,0,0
0,1405617449,1144986,0,0,0,0,0,0,0,0,0,0,1.4822e-323,108.333,50,0,0,0
0,1405617450,1145987,0,0,0,0,0,0,0,0,0,0,1.4822e-323,108.333,52,0,0,0
0,1405617451,1146989,0,0,0,0,0,0,0,0,0,0,1.4822e-323,108.333,49,0,0,0
0,1405617452,1147990,0,0,0,0,0,0,0,0,0,0,1.4822e-323,108.333,51,0,0,0
0,1405617453,1148991,0,0,0,0,0,0,0,0,0,0,1.4822e-323,108.333,52,0,0,0
0,1405617454,1149992,0,0,0,0,0,0,0,0,0,0,1.4822e-323,108.333,54,0,0,0
0,1405617455,1150993,0,0,0,0,0,0,0,0,0,0,1.4822e-323,108.333,53,0,0,0
0,1405617456,1151994,0,0,0,0,0,0,0,0,0,0,1.4822e-323,108.333,47,0,0,0
0,1405617457,1152997,0,0,0,0,0,0,0,0,0,0,1.4822e-323,108.333,50,0,0,0
0,1405617458,1153998,0,0,0,0,0,0,0,0,0,0,1.4822e-323,108.333,52,0,0,0
0,1405617459,1154999,0,0,0,0,0,0,0,0,0,0,1.4822e-323,108.333,50,0,0,0
0,1405617461,1156000,0,0,0,0,0,0,0,0,0,0,1.4822e-323,108.333,49,0,0,0
0,1405617462,1157001,0,0,0,0,0,0,0,0,0,0,1.4822e-323,108.333,50,0,0,0
0,1405617463,1158002,0,0,0,0,0,0,0,0,0,0,1.4822e-323,108.333,51,0,0,0
0,1405617464,1159003,0,0,0,0,0,0,0,0,0,0,1.4822e-323,108.333,46,0,0,0
0,1405617465,1160004,0,0,0,0,0,0,0,0,0,0,1.4822e-323,108.333,49,0,0,0
0,1405617466,1161005,0,0,0,0,0,0,0,0,0,0,1.4822e-323,108.333,53,0,0,0
0,1405617467,1162009,0,0,0,0,0,0,0,0,0,0,1.4822e-323,108.333,55,0,0,0
0,1405617468,1163011,0,0,0,0,0,0,0,0,0,0,1.4822e-323,108.333,52,0,0,0
0,1405617469,1164012,0,0,0,0,0,0,0,0,0,0,1.4822e-323,108.333,53,0,0,0
0,1405617470,1165014,0,0,0,0,0,0,0,0,0,0,1.4822e-323,108.333,51,0,0,0
0,1405617471,1166015,0,0,0,0,0,0,0,0,0,0,1.4822e-323,108.333,51,0,0,0
0,1405617472,1167016,0,0,0,0,0,0,0,0,0,0,1.4822e-323,108.333,48,0,0,0
0,1405617473,1168017,0,0,0,0,0,0,0,0,0,0,1.4822e-323,108.333,48,0,0,0
0,1405617474,1169019,0,0,0,0,0,0,0,0,0,0,1.4822e-323,108.333,47,0,0,0
0,1405617475,1170020,0,0,0,0,0,0,0,0,0,0,1.4822e-323,108.333,51,0,0,0
0,1405617476,1171022,0,0,0,0,0,0,0,0,0,0,1.4822e-323,108.333,48,0,0,0
0,1405617477,1172023,0,0,0,0,0,0,0,0,0,0,1.4822e-323,108.333,49,0,0,0
0,1405617478,1173024,0,0,0,0,0,0,0,0,0,0,1.4822e-323,108.333,47,0,0,0
0,1405617479,1174025,0,0,0,0,0,0,0,0,0,0,1.4822e-323,108.333,49,0,0,0
0,1405617480,1175026,0,0,0,0,0,0,0,0,0,0,1.4822e-323,108.333,53,0,0,0
0,1405617481,1176027,0,0,0,0,0,0,0,0,0,0,1.4822e-323,108.333,52,0,0,0
0,1405617482,1177031,0,0,0,0,0,0,0,0,0,0,1.4822e-323,108.333,52,0,0,0
0,1405617483,1178032,0,0,0,0,0,0,0,0,0,0,1.4822e-323,108.333,55,0,0,0
0,1405617484,1179033,0,0,0,0,0,0,0,0,0,0,1.4822e-323,108.333,55,0,0,0
0,1405617485,1180034,0,0,0,0,0,0,0,0,0,0,1.4822e-323,108.333,53,0,0,0
0,1405617486,1181037,0,0,0,0,0,0,0,0,0,0,1.4822e-323,108.333,48,0,0,0
0,1405617487,1182038,0,0,0,0,0,0,0,0,0,0,1.4822e-323,108.333,51,0,0,0
0,1405617488,1183042,0,0,0,0,0,0,0,0,0,0,1.4822e-323,108.333,54,0,0,0
0,1405617489,1184043,0,0,0,0,0,0,0,0,0,0,1.4822e-323,108.333,51,0,0,0
0,1405617490,1185044,0,0,0,0,0,0,0,0,0,0,1.4822e-323,108.333,52,0,0,0
0,1405617491,1186045,0,0,0,0,0,0,0,0,0,0,1.4822e-323,108.333,49,0,0,0
0,1405617492,1187046,0,0,0,0,0,0,0,0,0,0,1.4822e-323,108.333,51,0,0,0
0,1405617493,1188047,0,0,0,0,0,0,0,0,0,0,1.4822e-323,108.333,47,0,0,0
0,1405617494,1189048,0,0,0,0,0,0,0,0,0,0,1.4822e-323,108.333,52,0,0,0
0,1405617495,1190053,0,0,0,0,0,0,0,0,0,0,1.4822e-323,108.333,52,0,0,0
0,1405617496,1191057,0,0,0,0,0,0,0,0,0,0,1.4822e-323,108.333,54,0,0,0
0,1405617497,1192059,0,0,0,0,0,0,0,0,0,0,1.4822e-323,108.333,52,0,0,0
0,1405617498,1193061,0,0,0,0,0,0,0,0,0,0,1.4822e-323,108.333,51,0,0,0
0,1405617499,1194062,0,0,0,0,0,0,0,0,0,0,1.4822e-323,108.333,50,0,0,0
0,1405617500,1195063,0,0,0,0,0,0,0,0,0,0,1.4822e-323,108.333,52,0,0,0
0,1405617501,1196064,0,0,0,0,0,0,0,0,0,0,1.4822e-323,108.333,52,0,0,0
0,1405617502,1197066,0,0,0,0,0,0,0,0,0,0,1.4822e-323,108.333,50,0,0,0
0,1405617503,1198067,0,0,0,0,0,0,0,0,0,0,1.4822e-323,108.333,53,0,0,0
0,1405617504,1199068,0,0,0,0,0,0,0,0,0,0,1.4822e-323,108.333,55,0,0,0
0,1405617505,1200069,0,0,0,0,0,0,0,0,0,0,1.4822e-323,108.333,53,0,0,0
0,1405617506,1201071,0,0,0,0,0,0,0,0,0,0,1.4822e-323,108.333,50,0,0,0
0,1405617507,1202073,0,0,0,0,0,0,0,0,0,0,1.4822e-323,108.333,50,0,0,0
0,1405617508,1203074,0,0,0,0,0,0,0,0,0,0,1.4822e-323,108.333,54,0,0,0
0,1405617509,1204075,0,0,0,0,0,0,0,0,0,0,1.4822e-323,108.333,52,0,0,0
0,1405617510,1205076,0,0,0,0,0,0,0,0,0,0,1.4822e-323,108.333,51,0,0,0
0,1405617511,1206078,0,0,0,0,0,0,0,0,0,0,1.4822e-323,108.333,50,0,0,0
0,1405617512,1207079,0,0,0,0,0,0,0,0,0,0,1.4822e-323,108.333,50,0,0,0
0,1405617513,1208080,0,0,0,0,0,0,0,0,0,0,1.4822e-323,108.333,49,0,0,0
0,1405617514,1209081,0,0,0,0,0,0,0,0,0,0,1.4822e-323,108.333,46,0,0,0
0,1405617515,1210082,0,0,0,0,0,0,0,0,0,0,1.4822e-323,108.333,47,0,0,0
0,1405617516,1211084,0,0,0,0,0,0,0,0,0,0,1.4822e-323,108.333,48,0,0,0
0,1405617517,1212085,0,0,0,0,0,0,0,0,0,0,1.4822e-323,108.333,50,0,0,0
0,1405617518,1213086,0,0,0,0,0,0,0,0,0,0,1.4822e-323,108.333,52,0,0,0
0,1405617519,1214087,0,0,0,0,0,0,0,0,0,0,1.4822e-323,108.333,52,0,0,0
0,1405617520,1215088,0,0,0,0,0,0,0,0,0,0,1.4822e-323,108.333,53,0,0,0
0,1405617521,1216089,0,0,0,0,0,0,0,0,0,0,1.4822e-323,108.333,47,0,0,0
0,1405617522,1217090,0,0,0,0,0,0,0,0,0,0,1.4822e-323,108.333,49,0,0,0
0,1405617523,1218092,0,0,0,0,0,0,0,0,0,0,1.4822e-323,108.333,53,0,0,0
0,1405617524,1219093,0,0,0,0,0,0,0,0,0,0,1.4822e-323,108.333,55,0,0,0
0,1405617525,1220094,0,0,0,0,0,0,0,0,0,0,1.4822e-323,108.333,49,0,0,0
0,1405617526,1221095,0,0,0,0,0,0,0,0,0,0,1.4822e-323,108.333,53,0,0,0
0,1405617527,1222096,0,0,0,0,0,0,0,0,0,0,1.4822e-323,108.333,48,0,0,0
0,1405617528,1223097,0,0,0,0,0,0,0,0,0,0,1.4822e-323,108.333,51,0,0,0
0,1405617529,1224098,0,0,0,0,0,0,0,0,0,0,1.4822e-323,108.333,47,0,0,0
0,1405617530,1225099,0,0,0,0,0,0,0,0,0,0,1.4822e-323,108.333,51,0,0,0
0,1405617531,1226100,0,0,0,0,0,0,0,0,0,0,1.4822e-323,108.333,55,0,0,0
0,1405617532,1227101,0,0,0,0,0,0,0,0,0,0,1.4822e-323,108.333,54,0,0,0
0,1405617533,1228104,0,0,0,0,0,0,0,0,0,0,1.4822e-323,108.333,53,0,0,0
0,1405617534,1229106,0,0,0,0,0,0,0,0,0,0,1.4822e-323,108.333,50,0,0,0
0,1405617535,1230108,0,0,0,0,0,0,0,0,0,0,1.4822e-323,108.333,47,0,0,0
0,1405617536,1231110,0,0,0,0,0,0,0,0,0,0,1.4822e-323,108.333,51,0,0,0
0,1405617537,1232111,0,0,0,0,0,0,0,0,0,0,1.4822e-323,108.333,52,0,0,0
0,1405617538,1233112,0,0,0,0,0,0,0,0,0,0,1.4822e-323,108.333,51,0,0,0
0,1405617539,1234113,0,0,0,0,0,0,0,0,0,0,1.4822e-323,108.333,51,0,0,0
0,1405617540,1235114,0,0,0,0,0,0,0,0,0,0,1.4822e-323,108.333,54,0,0,0
0,1405617541,1236116,0,0,0,0,0,0,0,0,0,0,1.4822e-323,108.333,54,0,0,0
0,1405617542,1237117,0,0,0,0,0,0,0,0,0,0,1.4822e-323,108.333,47,0,0,0
0,1405617543,1238118,0,0,0,0,0,0,0,0,0,0,1.4822e-323,108.333,52,0,0,0
0,1405617544,1239119,0,0,0,0,0,0,0,0,0,0,1.4822e-323,108.333,52,0,0,0
0,1405617545,1240120,0,0,0,0,0,0,0,0,0,0,1.4822e-323,108.333,51,0,0,0
0,1405617546,1241121,0,0,0,0,0,0,0,0,0,0,1.4822e-323,108.333,49,0,0,0
0,1405617547,1242122,0,0,0,0,0,0,0,0,0,0,1.4822e-323,108.333,51,0,0,0
0,1405617548,1243123,0,0,0,0,0,0,0,0,0,0,1.4822e-323,108.333,54,0,0,0
0,1405617549,1244124,0,0,0,0,0,0,0,0,0,0,1.4822e-323,108.333,50,0,0,0
0,1405617550,1245125,0,0,0,0,0,0,0,0,0,0,1.4822e-323,108.333,50,0,0,0
0,1405617551,1246126,0,0,0,0,0,0,0,0,0,0,1.4822e-323,108.333,52,0,0,0
0,1405617552,1247130,0,0,0,0,0,0,0,0,0,0,1.4822e-323,108.333,52,0,0,0
0,1405617553,1248131,0,0,0,0,0,0,0,0,0,0,1.4822e-323,108.333,52,0,0,0
0,1405617554,1249132,0,0,0,0,0,0,0,0,0,0,1.4822e-323,108.333,50,0,0,0
0,1405617555,1250133,0,0,0,0,0,0,0,0,0,0,1.4822e-323,108.333,49,0,0,0
0,1405617556,1251134,0,0,0,0,0,0,0,0,0,0,1.4822e-323,108.333,53,0,0,0
0,1405617557,1252135,0,0,0,0,0,0,0,0,0,0,1.4822e-323,108.333,51,0,0,0
0,1405617558,1253136,0,0,0,0,0,0,0,0,0,0,1.4822e-323,108.333,49,0,0,0
0,1405617559,1254137,0,0,0,0,0,0,0,0,0,0,1.4822e-323,108.333,49,0,0,0
0,1405617560,1255138,0,0,0,0,0,0,0,0,0,0,1.4822e-323,108.333,55,0,0,0
0,1405617561,1256139,0,0,0,0,0,0,0,0,0,0,1.4822e-323,108.333,52,0,0,0
0,1405617562,1257141,0,0,0,0,0,0,0,0,0,0,1.4822e-323,108.333,48,0,0,0
0,1405617563,1258143,0,0,0,0,0,0,0,0,0,0,1.4822e-323,108.333,48,0,0,0
0,1405617564,1259144,0,0,0,0,0,0,0,0,0,0,1.4822e-323,108.333,48,0,0,0
0,1405617565,1260145,0,0,0,0,0,0,0,0,0,0,1.4822e-323,108.333,52,0,0,0
0,1405617566,1261147,0,0,0,0,0,0,0,0,0,0,1.4822e-323,108.333,54,0,0,0
0,1405617567,1262148,0,0,0,0,0,0,0,0,0,0,1.4822e-323,108.333,52,0,0,0
0,1405617568,1263149,0,0,0,0,0,0,0,0,0,0,1.4822e-323,108.333,52,0,0,0
0,1405617569,1264150,0,0,0,0,0,0,0,0,0,0,1.4822e-323,108.333,55,0,0,0
0,1405617570,1265151,0,0,0,0,0,0,0,0,0,0,1.4822e-323,108.333,43,0,0,0
0,1405617571,1266152,0,0,0,0,0,0,0,0,0,0,1.4822e-323,108.333,48,0,0,0
0,1405617572,1267153,0,0,0,0,0,0,0,0,0,0,1.4822e-323,108.333,48,0,0,0
0,1405617573,1268154,0,0,0,0,0,0,0,0,0,0,1.4822e-323,108.333,55,0,0,0
0,1405617574,1269155,0,0,0,0,0,0,0,0,0,0,1.4822e-323,108.333,52,0,0,0
0,1405617575,1270156,0,0,0,0,0,0,0,0,0,0,1.4822e-323,108.333,52,0,0,0
0,1405617576,1271157,0,0,0,0,0,0,0,0,0,0,1.4822e-323,108.333,50,0,0,0
0,1405617577,1272158,0,0,0,0,0,0,0,0,0,0,1.4822e-323,108.333,50,0,0,0
0,1405617578,1273159,0,0,0,0,0,0,0,0,0,0,1.4822e-323,108.333,53,0,0,0
0,1405617579,1274160,0,0,0,0,0,0,0,0,0,0,1.4822e-323,108.333,50,0,0,0
0,1405617580,1275161,0,0,0,0,0,0,0,0,0,0,1.4822e-323,108.333,49,0,0,0
0,1405617581,1276162,0,0,0,0,0,0,0,0,0,0,1.4822e-323,108.333,49,0,0,0
0,1405617582,1277164,0,0,0,0,0,0,0,0,0,0,1.4822e-323,108.333,52,0,0,0
0,1405617583,1278165,0,0,0,0,0,0,0,0,0,0,1.4822e-323,108.333,53,0,0,0
0,1405617584,1279166,0,0,0,0,0,0,0,0,0,0,1.4822e-323,108.333,49,0,0,0
0,1405617585,1280167,0,0,0,0,0,0,0,0,0,0,1.4822e-323,108.333,51,0,0,0
0,1405617586,1281168,0,0,0,0,0,0,0,0,0,0,1.4822e-323,108.333,50,0,0,0
0,1405617587,1282170,0,0,0,0,0,0,0,0,0,0,1.4822e-323,108.333,52,0,0,0
0,1405617588,1283172,0,0,0,0,0,0,0,0,0,0,1.4822e-323,108.333,51,0,0,0
0,1405617589,1284174,0,0,0,0,0,0,0,0,0,0,1.4822e-323,108.333,52,0,0,0
0,1405617590,1285175,0,0,0,0,0,0,0,0,0,0,1.4822e-323,108.333,48,0,0,0
0,1405617591,1286176,0,0,0,0,0,0,0,0,0,0,1.4822e-323,108.333,48,0,0,0
0,1405617592,1287177,0,0,0,0,0,0,0,0,0,0,1.4822e-323,108.333,44,0,0,0
0,1405617593,1288178,0,0,0,0,0,0,0,0,0,0,1.4822e-323,108.333,53,0,0,0
0,1405617594,1289180,0,0,0,0,0,0,0,0,0,0,1.4822e-323,108.333,50,0,0,0
0,1405617595,1290181,0,0,0,0,0,0,0,0,0,0,1.4822e-323,108.333,52,0,0,0
0,1405617596,1291182,0,0,0,0,0,0,0,0,0,0,1.4822e-323,108.333,50,0,0,0
0,1405617597,1292183,0,0,0,0,0,0,0,0,0,0,1.4822e-323,108.333,53,0,0,0
0,1405617598,1293185,0,0,0,0,0,0,0,0,0,0,1.4822e-323,108.333,50,0,0,0
0,1405617599,1294186,0,0,0,0,0,0,0,0,0,0,1.4822e-323,108.333,48,0,0,0
0,1405617600,1295205,0,0,0,0,0,0,0,0,0,0,1.4822e-323,108.333,38,0,0,0
0,1405617601,1296206,0,0,0,0,0,0,0,0,0,0,1.4822e-323,108.333,51,0,0,0
0,1405617602,1297207,0,0,0,0,0,0,0,0,0,0,1.4822e-323,108.333,52,0,0,0
0,1405617603,1298208,0,0,0,0,0,0,0,0,0,0,1.4822e-323,108.333,53,0,0,0
0,1405617604,1299209,0,0,0,0,0,0,0,0,0,0,1.4822e-323,108.333,53,0,0,0
0,1405617605,1300210,0,0,0,0,0,0,0,0,0,0,1.4822e-323,108.333,50,0,0,0
0,1405617606,1301211,0,0,0,0,0,0,0,0,0,0,1.4822e-323,108.333,48,0,0,0
0,1405617607,1302212,0,0,0,0,0,0,0,0,0,0,1.4822e-323,108.333,49,0,0,0
0,1405617608,1303213,0,0,0,0,0,0,0,0,0,0,1.4822e-323,108.333,54,0,0,0
0,1405617609,1304215,0,0,0,0,0,0,0,0,0,0,1.4822e-323,108.333,55,0,0,0
0,1405617610,1305216,0,0,0,0,0,0,0,0,0,0,1.4822e-323,108.333,55,0,0,0
0,1405617611,1306217,0,0,0,0,0,0,0,0,0,0,1.4822e-323,108.333,49,0,0,0
0,1405617612,1307219,0,0,0,0,0,0,0,0,0,0,1.4822e-323,108.333,51,0,0,0
0,1405617613,1308220,0,0,0,0,0,0,0,0,0,0,1.4822e-323,108.333,49,0,0,0
0,1405617614,1309221,0,0,0,0,0,0,0,0,0,0,1.4822e-323,108.333,49,0,0,0
0,1405617615,1310223,0,0,0,0,0,0,0,0,0,0,1.4822e-323,108.333,46,0,0,0
0,1405617616,1311224,0,0,0,0,0,0,0,0,0,0,1.4822e-323,108.333,54,0,0,0
0,1405617617,1312225,0,0,0,0,0,0,0,0,0,0,1.4822e-323,108.333,56,0,0,0
0,1405617618,1313226,0,0,0,0,0,0,0,0,0,0,1.4822e-323,108.333,54,0,0,0
0,1405617619,1314227,0,0,0,0,0,0,0,0,0,0,1.4822e-323,108.333,49,0,0,0
0,1405617620,1315229,0,0,0,0,0,0,0,0,0,0,1.4822e-323,108.333,51,0,0,0
0,1405617621,1316230,0,0,0,0,0,0,0,0,0,0,1.4822e-323,108.333,50,0,0,0
0,1405617622,1317231,0,0,0,0,0,0,0,0,0,0,1.4822e-323,108.333,52,0,0,0
0,1405617623,1318232,0,0,0,0,0,0,0,0,0,0,1.4822e-323,108.333,53,0,0,0
0,1405617624,1319233,0,0,0,0,0,0,0,0,0,0,1.4822e-323,108.333,52,0,0,0
0,1405617625,1320234,0,0,0,0,0,0,0,0,0,0,1.4822e-323,108.333,53,0,0,0
0,1405617626,1321235,0,0,0,0,0,0,0,0,0,0,1.4822e-323,108.333,54,0,0,0
0,1405617627,1322236,0,0,0,0,0,0,0,0,0,0,1.4822e-323,108.333,47,0,0,0
0,1405617628,1323237,0,0,0,0,0,0,0,0,0,0,1.4822e-323,108.333,48,0,0,0
0,1405617629,1324238,0,0,0,0,0,0,0,0,0,0,1.4822e-323,108.333,53,0,0,0
0,1405617630,1325239,0,0,0,0,0,0,0,0,0,0,1.4822e-323,108.333,47,0,0,0
0,1405617631,1326240,0,0,0,0,0,0,0,0,0,0,1.4822e-323,108.333,47,0,0,0
0,1405617632,1327241,0,0,0,0,0,0,0,0,0,0,1.4822e-323,108.333,47,0,0,0
0,1405617633,1328243,0,0,0,0,0,0,0,0,0,0,1.4822e-323,108.333,47,0,0,0
0,1405617634,1329244,0,0,0,0,0,0,0,0,0,0,1.4822e-323,108.333,50,0,0,0
0,1405617635,1330245,0,0,0,0,0,0,0,0,0,0,1.4822e-323,108.333,47,0,0,0
0,1405617636,1331247,0,0,0,0,0,0,0,0,0,0,1.4822e-323,108.333,53,0,0,0
0,1405617637,1332248,0,0,0,0,0,0,0,0,0,0,1.4822e-323,108.333,53,0,0,0
0,1405617638,1333249,0,0,0,0,0,0,0,0,0,0,1.4822e-323,108.333,56,0,0,0
0,1405617639,1334250,0,0,0,0,0,0,0,0,0,0,1.4822e-323,108.333,50,0,0,0
0,1405617640,1335251,0,0,0,0,0,0,0,0,0,0,1.4822e-323,108.333,52,0,0,0
0,1405617641,1336253,0,0,0,0,0,0,0,0,0,0,1.4822e-323,108.333,50,0,0,0
0,1405617642,1337255,0,0,0,0,0,0,0,0,0,0,1.4822e-323,108.333,50,0,0,0
0,1405617643,1338256,0,0,0,0,0,0,0,0,0,0,1.4822e-323,108.333,47,0,0,0
0,1405617644,1339257,0,0,0,0,0,0,0,0,0,0,1.4822e-323,108.333,52,0,0,0
0,1405617645,1340258,0,0,0,0,0,0,0,0,0,0,1.4822e-323,108.333,49,0,0,0
0,1405617646,1341259,0,0,0,0,0,0,0,0,0,0,1.4822e-323,108.333,55,0,0,0
0,1405617647,1342260,0,0,0,0,0,0,0,0,0,0,1.4822e-323,108.333,49,0,0,0
0,1405617648,1343261,0,0,0,0,0,0,0,0,0,0,1.4822e-323,108.333,50,0,0,0
0,1405617649,1344262,0,0,0,0,0,0,0,0,0,0,1.4822e-323,108.333,45,0,0,0
0,1405617650,1345264,0,0,0,0,0,0,0,0,0,0,1.4822e-323,108.333,55,0,0,0
0,1405617651,1346265,0,0,0,0,0,0,0,0,0,0,1.4822e-323,108.333,51,0,0,0
0,1405617652,1347266,0,0,0,0,0,0,0,0,0,0,1.4822e-323,108.333,52,0,0,0
0,1405617653,1348268,0,0,0,0,0,0,0,0,0,0,1.4822e-323,108.333,55,0,0,0
0,1405617654,1349269,0,0,0,0,0,0,0,0,0,0,1.4822e-323,108.333,54,0,0,0
0,1405617655,1350270,0,0,0,0,0,0,0,0,0,0,1.4822e-323,108.333,49,0,0,0
0,1405617656,1351271,0,0,0,0,0,0,0,0,0,0,1.4822e-323,108.333,50,0,0,0
0,1405617657,1352272,0,0,0,0,0,0,0,0,0,0,1.4822e-323,108.333,49,0,0,0
0,1405617658,1353274,0,0,0,0,0,0,0,0,0,0,1.4822e-323,108.333,52,0,0,0
0,1405617659,1354275,0,0,0,0,0,0,0,0,0,0,1.4822e-323,108.333,52,0,0,0
0,1405617660,1355276,0,0,0,0,0,0,0,0,0,0,1.4822e-323,108.333,52,0,0,0
0,1405617661,1356277,0,0,0,0,0,0,0,0,0,0,1.4822e-323,108.333,54,0,0,0
0,1405617662,1357278,0,0,0,0,0,0,0,0,0,0,1.4822e-323,108.333,50,0,0,0
0,1405617663,1358279,0,0,0,0,0,0,0,0,0,0,1.4822e-323,108.333,52,0,0,0
0,1405617664,1359280,0,0,0,0,0,0,0,0,0,0,1.4822e-323,108.333,48,0,0,0
0,1405617665,1360282,0,0,0,0,0,0,0,0,0,0,1.4822e-323,108.333,51,0,0,0
0,1405617666,1361283,0,0,0,0,0,0,0,0,0,0,1.4822e-323,108.333,52,0,0,0
0,1405617667,1362284,0,0,0,0,0,0,0,0,0,0,1.4822e-323,108.333,51,0,0,0
0,1405617668,1363285,0,0,0,0,0,0,0,0,0,0,1.4822e-323,108.333,51,0,0,0
0,1405617669,1364286,0,0,0,0,0,0,0,0,0,0,1.4822e-323,108.333,50,0,0,0
0,1405617670,1365287,0,0,0,0,0,0,0,0,0,0,1.4822e-323,108.333,47,0,0,0
0,1405617671,1366288,0,0,0,0,0,0,0,0,0,0,1.4822e-323,108.333,44,0,0,0
0,1405617672,1367289,0,0,0,0,0,0,0,0,0,0,1.4822e-323,108.333,49,0,0,0
0,1405617673,1368290,0,0,0,0,0,0,0,0,0,0,1.4822e-323,108.333,51,0,0,0
0,1405617674,1369292,0,0,0,0,0,0,0,0,0,0,1.4822e-323,108.333,52,0,0,0
0,1405617675,1370293,0,0,0,0,0,0,0,0,0,0,1.4822e-323,108.333,50,0,0,0
0,1405617676,1371294,0,0,0,0,0,0,0,0,0,0,1.4822e-323,108.333,50,0,0,0
0,1405617677,1372295,0,0,0,0,0,0,0,0,0,0,1.4822e-323,108.333,51,0,0,0
0,1405617678,1373296,0,0,0,0,0,0,0,0,0,0,1.4822e-323,108.333,51,0,0,0
0,1405617679,1374298,0,0,0,0,0,0,0,0,0,0,1.4822e-323,108.333,47,0,0,0
0,1405617680,1375299,0,0,0,0,0,0,0,0,0,0,1.4822e-323,108.333,51,0,0,0
0,1405617681,1376300,0,0,0,0,0,0,0,0,0,0,1.4822e-323,108.333,53,0,0,0
0,1405617682,1377302,0,0,0,0,0,0,0,0,0,0,1.4822e-323,108.333,53,0,0,0
0,1405617683,1378305,0,0,0,0,0,0,0,0,0,0,1.4822e-323,108.333,50,0,0,0
0,1405617684,1379306,0,0,0,0,0,0,0,0,0,0,1.4822e-323,108.333,50,0,0,0
0,1405617685,1380307,0,0,0,0,0,0,0,0,0,0,1.4822e-323,108.333,50,0,0,0
0,1405617686,1381309,0,0,0,0,0,0,0,0,0,0,1.4822e-323,108.333,49,0,0,0
0,1405617687,1382310,0,0,0,0,0,0,0,0,0,0,1.4822e-323,108.333,51,0,0,0
0,1405617688,1383311,0,0,0,0,0,0,0,0,0,0,1.4822e-323,108.333,51,0,0,0
0,1405617689,1384312,0,0,0,0,0,0,0,0,0,0,1.4822e-323,108.333,52,0,0,0
0,1405617690,1385313,0,0,0,0,0,0,0,0,0,0,1.4822e-323,108.333,50,0,0,0
0,1405617691,1386314,0,0,0,0,0,0,0,0,0,0,1.4822e-323,108.333,48,0,0,0
0,1405617692,1387315,0,0,0,0,0,0,0,0,0,0,1.4822e-323,108.333,50,0,0,0
0,1405617693,1388316,0,0,0,0,0,0,0,0,0,0,1.4822e-323,108.333,54,0,0,0
0,1405617694,1389318,0,0,0,0,0,0,0,0,0,0,1.4822e-323,108.333,52,0,0,0
0,1405617695,1390319,0,0,0,0,0,0,0,0,0,0,1.4822e-323,108.333,50,0,0,0
0,1405617696,1391321,0,0,0,0,0,0,0,0,0,0,1.4822e-323,108.333,50,0,0,0
0,1405617697,1392323,0,0,0,0,0,0,0,0,0,0,1.4822e-323,108.333,51,0,0,0
0,1405617698,1393324,0,0,0,0,0,0,0,0,0,0,1.4822e-323,108.333,49,0,0,0
0,1405617699,1394325,0,0,0,0,0,0,0,0,0,0,1.4822e-323,108.333,47,0,0,0
0,1405617700,1395326,0,0,0,0,0,0,0,0,0,0,1.4822e-323,108.333,51,0,0,0
0,1405617701,1396327,0,0,0,0,0,0,0,0,0,0,1.4822e-323,108.333,55,0,0,0
0,1405617702,1397328,0,0,0,0,0,0,0,0,0,0,1.4822e-323,108.333,53,0,0,0
0,1405617703,1398330,0,0,0,0,0,0,0,0,0,0,1.4822e-323,108.333,49,0,0,0
0,1405617704,1399331,0,0,0,0,0,0,0,0,0,0,1.4822e-323,108.333,47,0,0,0
0,1405617705,1400332,0,0,0,0,0,0,0,0,0,0,1.4822e-323,108.333,50,0,0,0
0,1405617706,1401333,0,0,0,0,0,0,0,0,0,0,1.4822e-323,108.333,50,0,0,0
0,1405617707,1402335,0,0,0,0,0,0,0,0,0,0,1.4822e-323,108.333,53,0,0,0
0,1405617708,1403336,0,0,0,0,0,0,0,0,0,0,1.4822e-323,108.333,52,0,0,0
0,1405617709,1404337,0,0,0,0,0,0,0,0,0,0,1.4822e-323,108.333,47,0,0,0
0,1405617710,1405338,0,0,0,0,0,0,0,0,0,0,1.4822e-323,108.333,46,0,0,0
0,1405617711,1406340,0,0,0,0,0,0,0,0,0,0,1.4822e-323,108.333,47,0,0,0
0,1405617712,1407341,0,0,0,0,0,0,0,0,0,0,1.4822e-323,108.333,47,0,0,0
0,1405617713,1408342,0,0,0,0,0,0,0,0,0,0,1.4822e-323,108.333,50,0,0,0
0,1405617714,1409343,0,0,0,0,0,0,0,0,0,0,1.4822e-323,108.333,55,0,0,0
0,1405617715,1410344,0,0,0,0,0,0,0,0,0,0,1.4822e-323,108.333,54,0,0,0
0,1405617716,1411345,0,0,0,0,0,0,0,0,0,0,1.4822e-323,108.333,52,0,0,0
0,1405617717,1412348,0,0,0,0,0,0,0,0,0,0,1.4822e-323,108.333,49,0,0,0
0,1405617718,1413350,0,0,0,0,0,0,0,0,0,0,1.4822e-323,108.333,49,0,0,0
0,1405617719,1414352,0,0,0,0,0,0,0,0,0,0,1.4822e-323,108.333,49,0,0,0
0,1405617720,1415354,0,0,0,0,0,0,0,0,0,0,1.4822e-323,108.333,52,0,0,0
0,1405617721,1416355,0,0,0,0,0,0,0,0,0,0,1.4822e-323,108.333,52,0,0,0
0,1405617722,1417356,0,0,0,0,0,0,0,0,0,0,1.4822e-323,108.333,53,0,0,0
0,1405617723,1418357,0,0,0,0,0,0,0,0,0,0,1.4822e-323,108.333,53,0,0,0
0,1405617724,1419358,0,0,0,0,0,0,0,0,0,0,1.4822e-323,108.333,53,0,0,0
0,1405617725,1420359,0,0,0,0,0,0,0,0,0,0,1.4822e-323,108.333,49,0,0,0
0,1405617726,1421361,0,0,0,0,0,0,0,0,0,0,1.4822e-323,108.333,52,0,0,0
0,1405617727,1422362,0,0,0,0,0,0,0,0,0,0,1.4822e-323,108.333,52,0,0,0
0,1405617728,1423363,0,0,0,0,0,0,0,0,0,0,1.4822e-323,108.333,54,0,0,0
0,1405617729,1424364,0,0,0,0,0,0,0,0,0,0,1.4822e-323,108.333,50,0,0,0
0,1405617730,1425365,0,0,0,0,0,0,0,0,0,0,1.4822e-323,108.333,52,0,0,0
0,1405617731,1426367,0,0,0,0,0,0,0,0,0,0,1.4822e-323,108.333,52,0,0,0
0,1405617732,1427368,0,0,0,0,0,0,0,0,0,0,1.4822e-323,108.333,53,0,0,0
0,1405617733,1428369,0,0,0,0,0,0,0,0,0,0,1.4822e-323,108.333,45,0,0,0
0,1405617734,1429370,0,0,0,0,0,0,0,0,0,0,1.4822e-323,108.333,53,0,0,0
0,1405617735,1430371,0,0,0,0,0,0,0,0,0,0,1.4822e-323,108.333,52,0,0,0
0,1405617736,1431373,0,0,0,0,0,0,0,0,0,0,1.4822e-323,108.333,53,0,0,0
0,1405617737,1432374,0,0,0,0,0,0,0,0,0,0,1.4822e-323,108.333,51,0,0,0
0,1405617738,1433375,0,0,0,0,0,0,0,0,0,0,1.4822e-323,108.333,51,0,0,0
0,1405617739,1434376,0,0,0,0,0,0,0,0,0,0,1.4822e-323,108.333,50,0,0,0
0,1405617740,1435377,0,0,0,0,0,0,0,0,0,0,1.4822e-323,108.333,55,0,0,0
0,1405617741,1436378,0,0,0,0,0,0,0,0,0,0,1.4822e-323,108.333,52,0,0,0
0,1405617742,1437379,0,0,0,0,0,0,0,0,0,0,1.4822e-323,108.333,50,0,0,0
0,1405617743,1438381,0,0,0,0,0,0,0,0,0,0,1.4822e-323,108.333,53,0,0,0
0,1405617744,1439384,0,0,0,0,0,0,0,0,0,0,1.4822e-323,108.333,54,0,0,0
0,1405617745,1440385,0,0,0,0,0,0,0,0,0,0,1.4822e-323,108.333,53,0,0,0
0,1405617746,1441386,0,0,0,0,0,0,0,0,0,0,1.4822e-323,108.333,47,0,0,0
0,1405617747,1442387,0,0,0,0,0,0,0,0,0,0,1.4822e-323,108.333,49,0,0,0
0,1405617748,1443388,0,0,0,0,0,0,0,0,0,0,1.4822e-323,108.333,50,0,0,0
0,1405617749,1444391,0,0,0,0,0,0,0,0,0,0,1.4822e-323,108.333,45,0,0,0
0,1405617750,1445393,0,0,0,0,0,0,0,0,0,0,1.4822e-323,108.333,46,0,0,0
0,1405617751,1446395,0,0,0,0,0,0,0,0,0,0,1.4822e-323,108.333,53,0,0,0
0,1405617752,1447396,0,0,0,0,0,0,0,0,0,0,1.4822e-323,108.333,55,0,0,0
0,1405617753,1448397,0,0,0,0,0,0,0,0,0,0,1.4822e-323,108.333,52,0,0,0
0,1405617754,1449398,0,0,0,0,0,0,0,0,0,0,1.4822e-323,108.333,50,0,0,0
0,1405617755,1450399,0,0,0,0,0,0,0,0,0,0,1.4822e-323,108.333,48,0,0,0
0,1405617756,1451400,0,0,0,0,0,0,0,0,0,0,1.4822e-323,108.333,56,0,0,0
0,1405617757,1452401,0,0,0,0,0,0,0,0,0,0,1.4822e-323,108.333,50,0,0,0
0,1405617758,1453402,0,0,0,0,0,0,0,0,0,0,1.4822e-323,108.333,51,0,0,0
0,1405617759,1454404,0,0,0,0,0,0,0,0,0,0,1.4822e-323,108.333,49,0,0,0
0,1405617760,1455405,0,0,0,0,0,0,0,0,0,0,1.4822e-323,108.333,52,0,0,0
0,1405617761,1456407,0,0,0,0,0,0,0,0,0,0,1.4822e-323,108.333,47,0,0,0
0,1405617762,1457408,0,0,0,0,0,0,0,0,0,0,1.4822e-323,108.333,49,0,0,0
0,1405617763,1458409,0,0,0,0,0,0,0,0,0,0,1.4822e-323,108.333,48,0,0,0
0,1405617764,1459410,0,0,0,0,0,0,0,0,0,0,1.4822e-323,108.333,53,0,0,0
0,1405617765,1460411,0,0,0,0,0,0,0,0,0,0,1.4822e-323,108.333,50,0,0,0
0,1405617766,1461412,0,0,0,0,0,0,0,0,0,0,1.4822e-323,108.333,52,0,0,0
0,1405617767,1462414,0,0,0,0,0,0,0,0,0,0,1.4822e-323,108.333,47,0,0,0
0,1405617768,1463415,0,0,0,0,0,0,0,0,0,0,1.4822e-323,108.333,52,0,0,0
0,1405617769,1464416,0,0,0,0,0,0,0,0,0,0,1.4822e-323,108.333,54,0,0,0
0,1405617770,1465417,0,0,0,0,0,0,0,0,0,0,1.4822e-323,108.333,50,0,0,0
0,1405617771,1466418,0,0,0,0,0,0,0,0,0,0,1.4822e-323,108.333,53,0,0,0
0,1405617772,1467422,0,0,0,0,0,0,0,0,0,0,1.4822e-323,108.333,55,0,0,0
0,1405617773,1468423,0,0,0,0,0,0,0,0,0,0,1.4822e-323,108.333,53,0,0,0
0,1405617774,1469424,0,0,0,0,0,0,0,0,0,0,1.4822e-323,108.333,50,0,0,0
0,1405617776,1471193,0,0,0,0,0,0,0,0,0,0,1.4822e-323,108.333,4,0,0,0
0,1405617777,1472194,0,0,0,0,0,0,0,0,0,0,1.4822e-323,108.333,55,0,0,0
0,1405617778,1473195,0,0,0,0,0,0,0,0,0,0,1.4822e-323,108.333,49,0,0,0
0,1405617779,1474196,0,0,0,0,0,0,0,0,0,0,1.4822e-323,108.333,44,0,0,0
0,1405617780,1475197,0,0,0,0,0,0,0,0,0,0,1.4822e-323,108.333,46,0,0,0
0,1405617781,1476198,0,0,0,0,0,0,0,0,0,0,1.4822e-323,108.333,52,0,0,0
0,1405617782,1477199,0,0,0,0,0,0,0,0,0,0,1.4822e-323,108.333,51,0,0,0
0,1405617783,1478200,0,0,0,0,0,0,0,0,0,0,1.4822e-323,108.333,53,0,0,0
0,1405617784,1479201,0,0,0,0,0,0,0,0,0,0,1.4822e-323,108.333,55,0,0,0
0,1405617785,1480202,0,0,0,0,0,0,0,0,0,0,1.4822e-323,108.333,56,0,0,0
0,1405617786,1481203,0,0,0,0,0,0,0,0,0,0,1.4822e-323,108.333,48,0,0,0
0,1405617787,1482204,0,0,0,0,0,0,0,0,0,0,1.4822e-323,108.333,48,0,0,0
0,1405617788,1483205,0,0,0,0,0,0,0,0,0,0,1.4822e-323,108.333,50,0,0,0
0,1405617789,1484206,0,0,0,0,0,0,0,0,0,0,1.4822e-323,108.333,52,0,0,0
0,1405617790,1485207,0,0,0,0,0,0,0,0,0,0,1.4822e-323,108.333,53,0,0,0
0,1405617791,1486208,0,0,0,0,0,0,0,0,0,0,1.4822e-323,108.333,52,0,0,0
0,1405617792,1487209,0,0,0,0,0,0,0,0,0,0,1.4822e-323,108.333,51,0,0,0
0,1405617793,1488210,0,0,0,0,0,0,0,0,0,0,1.4822e-323,108.333,52,0,0,0
0,1405617794,1489212,0,0,0,0,0,0,0,0,0,0,1.4822e-323,108.333,50,0,0,0
0,1405617795,1490213,0,0,0,0,0,0,0,0,0,0,1.4822e-323,108.333,50,0,0,0
0,1405617796,1491214,0,0,0,0,0,0,0,0,0,0,1.4822e-323,108.333,49,0,0,0
0,1405617797,1492215,0,0,0,0,0,0,0,0,0,0,1.4822e-323,108.333,53,0,0,0
0,1405617798,1493216,0,0,0,0,0,0,0,0,0,0,1.4822e-323,108.333,53,0,0,0
0,1405617799,1494217,0,0,0,0,0,0,0,0,0,0,1.4822e-323,108.333,51,0,0,0
0,1405617800,1495218,0,0,0,0,0,0,0,0,0,0,1.4822e-323,108.333,52,0,0,0
0,1405617801,1496219,0,0,0,0,0,0,0,0,0,0,1.4822e-323,108.333,49,0,0,0
0,1405617802,1497220,0,0,0,0,0,0,0,0,0,0,1.4822e-323,108.333,52,0,0,0
0,1405617803,1498221,0,0,0,0,0,0,0,0,0,0,1.4822e-323,108.333,50,0,0,0
0,1405617804,1499222,0,0,0,0,0,0,0,0,0,0,1.4822e-323,108.333,53,0,0,0
0,1405617805,1500223,0,0,0,0,0,0,0,0,0,0,1.4822e-323,108.333,54,0,0,0
0,1405617806,1501224,0,0,0,0,0,0,0,0,0,0,1.4822e-323,108.333,48,0,0,0
0,1405617807,1502225,0,0,0,0,0,0,0,0,0,0,1.4822e-323,108.333,48,0,0,0
0,1405617808,1503226,0,0,0,0,0,0,0,0,0,0,1.4822e-323,108.333,56,0,0,0
0,1405617809,1504227,0,0,0,0,0,0,0,0,0,0,1.4822e-323,108.333,51,0,0,0
0,1405617810,1505948,0,0,0,0,0,0,0,0,0,0,1.4822e-323,108.333,30,0,0,0
0,1405617811,1506949,0,0,0,0,0,0,0,0,0,0,1.4822e-323,108.333,52,0,0,0
0,1405617812,1507950,0,0,0,0,0,0,0,0,0,0,1.4822e-323,108.333,52,0,0,0
0,1405617813,1508951,0,0,0,0,0,0,0,0,0,0,1.4822e-323,108.333,52,0,0,0
0,1405617814,1509952,0,0,0,0,0,0,0,0,0,0,1.4822e-323,108.333,52,0,0,0
0,1405617815,1510953,0,0,0,0,0,0,0,0,0,0,1.4822e-323,108.333,52,0,0,0
0,1405617816,1511954,0,0,0,0,0,0,0,0,0,0,1.4822e-323,108.333,49,0,0,0
0,1405617817,1512955,0,0,0,0,0,0,0,0,0,0,1.4822e-323,108.333,53,0,0,0
0,1405617818,1513957,0,0,0,0,0,0,0,0,0,0,1.4822e-323,108.333,53,0,0,0
0,1405617819,1514958,0,0,0,0,0,0,0,0,0,0,1.4822e-323,108.333,55,0,0,0
0,1405617820,1515959,0,0,0,0,0,0,0,0,0,0,1.4822e-323,108.333,48,0,0,0
0,1405617821,1516961,0,0,0,0,0,0,0,0,0,0,1.4822e-323,108.333,52,0,0,0
0,1405617822,1517963,0,0,0,0,0,0,0,0,0,0,1.4822e-323,108.333,50,0,0,0
0,1405617823,1518964,0,0,0,0,0,0,0,0,0,0,1.4822e-323,108.333,49,0,0,0
0,1405617824,1519965,0,0,0,0,0,0,0,0,0,0,1.4822e-323,108.333,49,0,0,0
0,1405617825,1520967,0,0,0,0,0,0,0,0,0,0,1.4822e-323,108.333,49,0,0,0
0,1405617826,1521969,0,0,0,0,0,0,0,0,0,0,1.4822e-323,108.333,52,0,0,0
0,1405617827,1522971,0,0,0,0,0,0,0,0,0,0,1.4822e-323,108.333,56,0,0,0
0,1405617828,1523972,0,0,0,0,0,0,0,0,0,0,1.4822e-323,108.333,54,0,0,0
0,1405617829,1524973,0,0,0,0,0,0,0,0,0,0,1.4822e-323,108.333,52,0,0,0
0,1405617830,1525974,0,0,0,0,0,0,0,0,0,0,1.4822e-323,108.333,50,0,0,0
0,1405617831,1526976,0,0,0,0,0,0,0,0,0,0,1.4822e-323,108.333,51,0,0,0
0,1405617832,1527977,0,0,0,0,0,0,0,0,0,0,1.4822e-323,108.333,51,0,0,0
0,1405617833,1528978,0,0,0,0,0,0,0,0,0,0,1.4822e-323,108.333,52,0,0,0
0,1405617834,1529979,0,0,0,0,0,0,0,0,0,0,1.4822e-323,108.333,49,0,0,0
0,1405617835,1530980,0,0,0,0,0,0,0,0,0,0,1.4822e-323,108.333,56,0,0,0
0,1405617836,1531981,0,0,0,0,0,0,0,0,0,0,1.4822e-323,108.333,51,0,0,0
0,1405617837,1532982,0,0,0,0,0,0,0,0,0,0,1.4822e-323,108.333,49,0,0,0
0,1405617838,1533984,0,0,0,0,0,0,0,0,0,0,1.4822e-323,108.333,45,0,0,0
0,1405617839,1534985,0,0,0,0,0,0,0,0,0,0,1.4822e-323,108.333,50,0,0,0
0,1405617840,1535986,0,0,0,0,0,0,0,0,0,0,1.4822e-323,108.333,52,0,0,0
0,1405617841,1536987,0,0,0,0,0,0,0,0,0,0,1.4822e-323,108.333,53,0,0,0
0,1405617842,1537988,0,0,0,0,0,0,0,0,0,0,1.4822e-323,108.333,50,0,0,0
0,1405617843,1538990,0,0,0,0,0,0,0,0,0,0,1.4822e-323,108.333,53,0,0,0
0,1405617844,1539992,0,0,0,0,0,0,0,0,0,0,1.4822e-323,108.333,51,0,0,0
0,1405617845,1540993,0,0,0,0,0,0,0,0,0,0,1.4822e-323,108.333,50,0,0,0
0,1405617846,1541994,0,0,0,0,0,0,0,0,0,0,1.4822e-323,108.333,42,0,0,0
0,1405617847,1542995,0,0,0,0,0,0,0,0,0,0,1.4822e-323,108.333,47,0,0,0
0,1405617848,1543996,0,0,0,0,0,0,0,0,0,0,1.4822e-323,108.333,51,0,0,0
0,1405617849,1544997,0,0,0,0,0,0,0,0,0,0,1.4822e-323,108.333,52,0,0,0
0,1405617850,1545998,0,0,0,0,0,0,0,0,0,0,1.4822e-323,108.333,52,0,0,0
0,1405617851,1546999,0,0,0,0,0,0,0,0,0,0,1.4822e-323,108.333,43,0,0,0
0,1405617853,1548001,0,0,0,0,0,0,0,0,0,0,1.4822e-323,108.333,51,0,0,0
0,1405617854,1549002,0,0,0,0,0,0,0,0,0,0,1.4822e-323,108.333,47,0,0,0
0,1405617855,1550004,0,0,0,0,0,0,0,0,0,0,1.4822e-323,108.333,51,0,0,0
0,1405617856,1551005,0,0,0,0,0,0,0,0,0,0,1.4822e-323,108.333,51,0,0,0
0,1405617857,1552006,0,0,0,0,0,0,0,0,0,0,1.4822e-323,108.333,53,0,0,0
0,1405617858,1553007,0,0,0,0,0,0,0,0,0,0,1.4822e-323,108.333,51,0,0,0
0,1405617859,1554008,0,0,0,0,0,0,0,0,0,0,1.4822e-323,108.333,51,0,0,0
0,1405617860,1555009,0,0,0,0,0,0,0,0,0,0,1.4822e-323,108.333,50,0,0,0
0,1405617861,1556010,0,0,0,0,0,0,0,0,0,0,1.4822e-323,108.333,52,0,0,0
0,1405617862,1557011,0,0,0,0,0,0,0,0,0,0,1.4822e-323,108.333,39,0,0,0
0,1405617863,1558013,0,0,0,0,0,0,0,0,0,0,1.4822e-323,108.333,50,0,0,0
0,1405617864,1559015,0,0,0,0,0,0,0,0,0,0,1.4822e-323,108.333,54,0,0,0
0,1405617865,1560017,0,0,0,0,0,0,0,0,0,0,1.4822e-323,108.333,53,0,0,0
0,1405617866,1561018,0,0,0,0,0,0,0,0,0,0,1.4822e-323,108.333,49,0,0,0
0,1405617867,1562020,0,0,0,0,0,0,0,0,0,0,1.4822e-323,108.333,48,0,0,0
0,1405617868,1563021,0,0,0,0,0,0,0,0,0,0,1.4822e-323,108.333,51,0,0,0
0,1405617869,1564022,0,0,0,0,0,0,0,0,0,0,1.4822e-323,108.333,50,0,0,0
0,1405617870,1565023,0,0,0,0,0,0,0,0,0,0,1.4822e-323,108.333,53,0,0,0
0,1405617871,1566025,0,0,0,0,0,0,0,0,0,0,1.4822e-323,108.333,49,0,0,0
0,1405617872,1567026,0,0,0,0,0,0,0,0,0,0,1.4822e-323,108.333,55,0,0,0
0,1405617873,1568027,0,0,0,0,0,0,0,0,0,0,1.4822e-323,108.333,51,0,0,0
0,1405617874,1569028,0,0,0,0,0,0,0,0,0,0,1.4822e-323,108.333,52,0,0,0
0,1405617875,1570029,0,0,0,0,0,0,0,0,0,0,1.4822e-323,108.333,51,0,0,0
0,1405617876,1571031,0,0,0,0,0,0,0,0,0,0,1.4822e-323,108.333,50,0,0,0
0,1405617877,1572032,0,0,0,0,0,0,0,0,0,0,1.4822e-323,108.333,55,0,0,0
0,1405617878,1573034,0,0,0,0,0,0,0,0,0,0,1.4822e-323,108.333,51,0,0,0
0,1405617879,1574035,0,0,0,0,0,0,0,0,0,0,1.4822e-323,108.333,53,0,0,0
0,1405617880,1575036,0,0,0,0,0,0,0,0,0,0,1.4822e-323,108.333,51,0,0,0
0,1405617881,1576037,0,0,0,0,0,0,0,0,0,0,1.4822e-323,108.333,52,0,0,0
0,1405617882,1577039,0,0,0,0,0,0,0,0,0,0,1.4822e-323,108.333,48,0,0,0
0,1405617883,1578040,0,0,0,0,0,0,0,0,0,0,1.4822e-323,108.333,50,0,0,0
0,1405617884,1579042,0,0,0,0,0,0,0,0,0,0,1.4822e-323,108.333,50,0,0,0
0,1405617885,1580043,0,0,0,0,0,0,0,0,0,0,1.4822e-323,108.333,51,0,0,0
0,1405617886,1581044,0,0,0,0,0,0,0,0,0,0,1.4822e-323,108.333,45,0,0,0
0,1405617887,1582045,0,0,0,0,0,0,0,0,0,0,1.4822e-323,108.333,51,0,0,0
0,1405617888,1583047,0,0,0,0,0,0,0,0,0,0,1.4822e-323,108.333,48,0,0,0
0,1405617889,1584049,0,0,0,0,0,0,0,0,0,0,1.4822e-323,108.333,51,0,0,0
0,1405617890,1585050,0,0,0,0,0,0,0,0,0,0,1.4822e-323,108.333,49,0,0,0
0,1405617891,1586051,0,0,0,0,0,0,0,0,0,0,1.4822e-323,108.333,53,0,0,0
0,1405617892,1587052,0,0,0,0,0,0,0,0,0,0,1.4822e-323,108.333,52,0,0,0
0,1405617893,1588054,0,0,0,0,0,0,0,0,0,0,1.4822e-323,108.333,54,0,0,0
0,1405617894,1589055,0,0,0,0,0,0,0,0,0,0,1.4822e-323,108.333,50,0,0,0
0,1405617895,1590056,0,0,0,0,0,0,0,0,0,0,1.4822e-323,108.333,51,0,0,0
0,1405617896,1591057,0,0,0,0,0,0,0,0,0,0,1.4822e-323,108.333,48,0,0,0
0,1405617897,1592058,0,0,0,0,0,0,0,0,0,0,1.4822e-323,108.333,52,0,0,0
0,1405617898,1593062,0,0,0,0,0,0,0,0,0,0,1.4822e-323,108.333,49,0,0,0
0,1405617899,1594064,0,0,0,0,0,0,0,0,0,0,1.4822e-323,108.333,53,0,0,0
0,1405617900,1595065,0,0,0,0,0,0,0,0,0,0,1.4822e-323,108.333,56,0,0,0
0,1405617901,1596066,0,0,0,0,0,0,0,0,0,0,1.4822e-323,108.333,54,0,0,0
0,1405617902,1597067,0,0,0,0,0,0,0,0,0,0,1.4822e-323,108.333,53,0,0,0
0,1405617903,1598068,0,0,0,0,0,0,0,0,0,0,1.4822e-323,108.333,47,0,0,0
0,1405617904,1599069,0,0,0,0,0,0,0,0,0,0,1.4822e-323,108.333,50,0,0,0
0,1405617905,1600070,0,0,0,0,0,0,0,0,0,0,1.4822e-323,108.333,55,0,0,0
0,1405617906,1601071,0,0,0,0,0,0,0,0,0,0,1.4822e-323,108.333,52,0,0,0
0,1405617907,1602072,0,0,0,0,0,0,0,0,0,0,1.4822e-323,108.333,49,0,0,0
0,1405617908,1603073,0,0,0,0,0,0,0,0,0,0,1.4822e-323,108.333,50,0,0,0
0,1405617909,1604074,0,0,0,0,0,0,0,0,0,0,1.4822e-323,108.333,53,0,0,0
0,1405617910,1605075,0,0,0,0,0,0,0,0,0,0,1.4822e-323,108.333,50,0,0,0
0,1405617911,1606076,0,0,0,0,0,0,0,0,0,0,1.4822e-323,108.333,52,0,0,0
0,1405617912,1607079,0,0,0,0,0,0,0,0,0,0,1.4822e-323,108.333,55,0,0,0
0,1405617913,1608080,0,0,0,0,0,0,0,0,0,0,1.4822e-323,108.333,55,0,0,0
0,1405617914,1609081,0,0,0,0,0,0,0,0,0,0,1.4822e-323,108.333,52,0,0,0
0,1405617915,1610083,0,0,0,0,0,0,0,0,0,0,1.4822e-323,108.333,52,0,0,0
0,1405617916,1611084,0,0,0,0,0,0,0,0,0,0,1.4822e-323,108.333,52,0,0,0
0,1405617917,1612086,0,0,0,0,0,0,0,0,0,0,1.4822e-323,108.333,51,0,0,0
0,1405617918,1613087,0,0,0,0,0,0,0,0,0,0,1.4822e-323,108.333,51,0,0,0
0,1405617919,1614088,0,0,0,0,0,0,0,0,0,0,1.4822e-323,108.333,52,0,0,0
0,1405617920,1615090,0,0,0,0,0,0,0,0,0,0,1.4822e-323,108.333,52,0,0,0
0,1405617921,1616092,0,0,0,0,0,0,0,0,0,0,1.4822e-323,108.333,55,0,0,0
0,1405617922,1617094,0,0,0,0,0,0,0,0,0,0,1.4822e-323,108.333,53,0,0,0
0,1405617923,1618095,0,0,0,0,0,0,0,0,0,0,1.4822e-323,108.333,46,0,0,0
0,1405617924,1619096,0,0,0,0,0,0,0,0,0,0,1.4822e-323,108.333,43,0,0,0
0,1405617925,1620097,0,0,0,0,0,0,0,0,0,0,1.4822e-323,108.333,48,0,0,0
0,1405617926,1621098,0,0,0,0,0,0,0,0,0,0,1.4822e-323,108.333,50,0,0,0
0,1405617927,1622099,0,0,0,0,0,0,0,0,0,0,1.4822e-323,108.333,49,0,0,0
0,1405617928,1623101,0,0,0,0,0,0,0,0,0,0,1.4822e-323,108.333,56,0,0,0
0,1405617929,1624102,0,0,0,0,0,0,0,0,0,0,1.4822e-323,108.333,52,0,0,0
0,1405617930,1625103,0,0,0,0,0,0,0,0,0,0,1.4822e-323,108.333,52,0,0,0
0,1405617931,1626104,0,0,0,0,0,0,0,0,0,0,1.4822e-323,108.333,51,0,0,0
0,1405617932,1627105,0,0,0,0,0,0,0,0,0,0,1.4822e-323,108.333,51,0,0,0
0,1405617933,1628106,0,0,0,0,0,0,0,0,0,0,1.4822e-323,108.333,50,0,0,0
0,1405617934,1629107,0,0,0,0,0,0,0,0,0,0,1.4822e-323,108.333,52,0,0,0
0,1405617935,1630108,0,0,0,0,0,0,0,0,0,0,1.4822e-323,108.333,52,0,0,0
0,1405617936,1631109,0,0,0,0,0,0,0,0,0,0,1.4822e-323,108.333,52,0,0,0
0,1405617937,1632110,0,0,0,0,0,0,0,0,0,0,1.4822e-323,108.333,46,0,0,0
0,1405617938,1633111,0,0,0,0,0,0,0,0,0,0,1.4822e-323,108.333,54,0,0,0
0,1405617939,1634112,0,0,0,0,0,0,0,0,0,0,1.4822e-323,108.333,50,0,0,0
0,1405617940,1635113,0,0,0,0,0,0,0,0,0,0,1.4822e-323,108.333,52,0,0,0
0,1405617941,1636114,0,0,0,0,0,0,0,0,0,0,1.4822e-323,108.333,50,0,0,0
0,1405617942,1637115,0,0,0,0,0,0,0,0,0,0,1.4822e-323,108.333,52,0,0,0
0,1405617943,1638116,0,0,0,0,0,0,0,0,0,0,1.4822e-323,108.333,48,0,0,0
0,1405617944,1639117,0,0,0,0,0,0,0,0,0,0,1.4822e-323,108.333,49,0,0,0
0,1405617945,1640119,0,0,0,0,0,0,0,0,0,0,1.4822e-323,108.333,52,0,0,0
0,1405617946,1641120,0,0,0,0,0,0,0,0,0,0,1.4822e-323,108.333,55,0,0,0
0,1405617947,1642121,0,0,0,0,0,0,0,0,0,0,1.4822e-323,108.333,51,0,0,0
0,1405617948,1643122,0,0,0,0,0,0,0,0,0,0,1.4822e-323,108.333,53,0,0,0
0,1405617949,1644123,0,0,0,0,0,0,0,0,0,0,1.4822e-323,108.333,53,0,0,0
0,1405617950,1645124,0,0,0,0,0,0,0,0,0,0,1.4822e-323,108.333,53,0,0,0
0,1405617951,1646125,0,0,0,0,0,0,0,0,0,0,1.4822e-323,108.333,47,0,0,0
0,1405617952,1647126,0,0,0,0,0,0,0,0,0,0,1.4822e-323,108.333,48,0,0,0
0,1405617953,1648127,0,0,0,0,0,0,0,0,0,0,1.4822e-323,108.333,55,0,0,0
0,1405617954,1649129,0,0,0,0,0,0,0,0,0,0,1.4822e-323,108.333,51,0,0,0
0,1405617955,1650130,0,0,0,0,0,0,0,0,0,0,1.4822e-323,108.333,45,0,0,0
0,1405617956,1651131,0,0,0,0,0,0,0,0,0,0,1.4822e-323,108.333,51,0,0,0
0,1405617957,1652132,0,0,0,0,0,0,0,0,0,0,1.4822e-323,108.333,54,0,0,0
0,1405617958,1653134,0,0,0,0,0,0,0,0,0,0,1.4822e-323,108.333,54,0,0,0
0,1405617959,1654135,0,0,0,0,0,0,0,0,0,0,1.4822e-323,108.333,49,0,0,0
0,1405617960,1655136,0,0,0,0,0,0,0,0,0,0,1.4822e-323,108.333,49,0,0,0
0,1405617961,1656138,0,0,0,0,0,0,0,0,0,0,1.4822e-323,108.333,49,0,0,0
0,1405617962,1657139,0,0,0,0,0,0,0,0,0,0,1.4822e-323,108.333,47,0,0,0
0,1405617963,1658140,0,0,0,0,0,0,0,0,0,0,1.4822e-323,108.333,48,0,0,0
0,1405617964,1659141,0,0,0,0,0,0,0,0,0,0,1.4822e-323,108.333,47,0,0,0
0,1405617965,1660142,0,0,0,0,0,0,0,0,0,0,1.4822e-323,108.333,51,0,0,0
0,1405617966,1661143,0,0,0,0,0,0,0,0,0,0,1.4822e-323,108.333,49,0,0,0
0,1405617967,1662146,0,0,0,0,0,0,0,0,0,0,1.4822e-323,108.333,48,0,0,0
0,1405617968,1663147,0,0,0,0,0,0,0,0,0,0,1.4822e-323,108.333,53,0,0,0
0,1405617969,1664148,0,0,0,0,0,0,0,0,0,0,1.4822e-323,108.333,52,0,0,0
0,1405617970,1665149,0,0,0,0,0,0,0,0,0,0,1.4822e-323,108.333,51,0,0,0
0,1405617971,1666150,0,0,0,0,0,0,0,0,0,0,1.4822e-323,108.333,53,0,0,0
0,1405617972,1667151,0,0,0,0,0,0,0,0,0,0,1.4822e-323,108.333,52,0,0,0
0,1405617973,1668152,0,0,0,0,0,0,0,0,0,0,1.4822e-323,108.333,52,0,0,0
0,1405617974,1669153,0,0,0,0,0,0,0,0,0,0,1.4822e-323,108.333,52,0,0,0
0,1405617975,1670154,0,0,0,0,0,0,0,0,0,0,1.4822e-323,108.333,50,0,0,0
0,1405617976,1671155,0,0,0,0,0,0,0,0,0,0,1.4822e-323,108.333,51,0,0,0
0,1405617977,1672156,0,0,0,0,0,0,0,0,0,0,1.4822e-323,108.333,54,0,0,0
0,1405617978,1673157,0,0,0,0,0,0,0,0,0,0,1.4822e-323,108.333,55,0,0,0
0,1405617979,1674158,0,0,0,0,0,0,0,0,0,0,1.4822e-323,108.333,48,0,0,0
0,1405617980,1675159,0,0,0,0,0,0,0,0,0,0,1.4822e-323,108.333,48,0,0,0
0,1405617981,1676160,0,0,0,0,0,0,0,0,0,0,1.4822e-323,108.333,49,0,0,0
0,1405617982,1677161,0,0,0,0,0,0,0,0,0,0,1.4822e-323,108.333,52,0,0,0
0,1405617983,1678162,0,0,0,0,0,0,0,0,0,0,1.4822e-323,108.333,50,0,0,0
0,1405617984,1679163,0,0,0,0,0,0,0,0,0,0,1.4822e-323,108.333,51,0,0,0
0,1405617985,1680164,0,0,0,0,0,0,0,0,0,0,1.4822e-323,108.333,53,0,0,0
0,1405617986,1681165,0,0,0,0,0,0,0,0,0,0,1.4822e-323,108.333,54,0,0,0
0,1405617987,1682167,0,0,0,0,0,0,0,0,0,0,1.4822e-323,108.333,51,0,0,0
0,1405617988,1683169,0,0,0,0,0,0,0,0,0,0,1.4822e-323,108.333,52,0,0,0
0,1405617989,1684170,0,0,0,0,0,0,0,0,0,0,1.4822e-323,108.333,50,0,0,0
0,1405617990,1685171,0,0,0,0,0,0,0,0,0,0,1.4822e-323,108.333,47,0,0,0
0,1405617991,1686172,0,0,0,0,0,0,0,0,0,0,1.4822e-323,108.333,51,0,0,0
0,1405617992,1687174,0,0,0,0,0,0,0,0,0,0,1.4822e-323,108.333,51,0,0,0
0,1405617993,1688175,0,0,0,0,0,0,0,0,0,0,1.4822e-323,108.333,55,0,0,0
0,1405617994,1689177,0,0,0,0,0,0,0,0,0,0,1.4822e-323,108.333,52,0,0,0
0,1405617995,1690178,0,0,0,0,0,0,0,0,0,0,1.4822e-323,108.333,53,0,0,0
0,1405617996,1691179,0,0,0,0,0,0,0,0,0,0,1.4822e-323,108.333,48,0,0,0
0,1405617997,1692180,0,0,0,0,0,0,0,0,0,0,1.4822e-323,108.333,53,0,0,0
0,1405617998,1693181,0,0,0,0,0,0,0,0,0,0,1.4822e-323,108.333,51,0,0,0
0,1405617999,1694182,0,0,0,0,0,0,0,0,0,0,1.4822e-323,108.333,51,0,0,0
0,1405618000,1695184,0,0,0,0,0,0,0,0,0,0,1.4822e-323,108.333,48,0,0,0
0,1405618001,1696185,0,0,0,0,0,0,0,0,0,0,1.4822e-323,108.333,47,0,0,0
0,1405618002,1697186,0,0,0,0,0,0,0,0,0,0,1.4822e-323,108.333,47,0,0,0
0,1405618003,1698190,0,0,0,0,0,0,0,0,0,0,1.4822e-323,108.333,47,0,0,0
0,1405618004,1699192,0,0,0,0,0,0,0,0,0,0,1.4822e-323,108.333,49,0,0,0
0,1405618005,1700194,0,0,0,0,0,0,0,0,0,0,1.4822e-323,108.333,51,0,0,0
0,1405618006,1701195,0,0,0,0,0,0,0,0,0,0,1.4822e-323,108.333,50,0,0,0
0,1405618007,1702196,0,0,0,0,0,0,0,0,0,0,1.4822e-323,108.333,52,0,0,0
0,1405618008,1703197,0,0,0,0,0,0,0,0,0,0,1.4822e-323,108.333,50,0,0,0
0,1405618009,1704198,0,0,0,0,0,0,0,0,0,0,1.4822e-323,108.333,52,0,0,0
0,1405618010,1705199,0,0,0,0,0,0,0,0,0,0,1.4822e-323,108.333,52,0,0,0
0,1405618011,1706200,0,0,0,0,0,0,0,0,0,0,1.4822e-323,108.333,53,0,0,0
0,1405618012,1707201,0,0,0,0,0,0,0,0,0,0,1.4822e-323,108.333,49,0,0,0
0,1405618013,1708202,0,0,0,0,0,0,0,0,0,0,1.4822e-323,108.333,50,0,0,0
0,1405618014,1709203,0,0,0,0,0,0,0,0,0,0,1.4822e-323,108.333,54,0,0,0
0,1405618015,1710204,0,0,0,0,0,0,0,0,0,0,1.4822e-323,108.333,50,0,0,0
0,1405618016,1711205,0,0,0,0,0,0,0,0,0,0,1.4822e-323,108.333,50,0,0,0
0,1405618017,1712207,0,0,0,0,0,0,0,0,0,0,1.4822e-323,108.333,48,0,0,0
0,1405618018,1713208,0,0,0,0,0,0,0,0,0,0,1.4822e-323,108.333,55,0,0,0
0,1405618019,1714209,0,0,0,0,0,0,0,0,0,0,1.4822e-323,108.333,55,0,0,0
0,1405618020,1715210,0,0,0,0,0,0,0,0,0,0,1.4822e-323,108.333,50,0,0,0
0,1405618021,1716211,0,0,0,0,0,0,0,0,0,0,1.4822e-323,108.333,54,0,0,0
0,1405618022,1717212,0,0,0,0,0,0,0,0,0,0,1.4822e-323,108.333,53,0,0,0
0,1405618023,1718213,0,0,0,0,0,0,0,0,0,0,1.4822e-323,108.333,52,0,0,0
0,1405618024,1719214,0,0,0,0,0,0,0,0,0,0,1.4822e-323,108.333,51,0,0,0
0,1405618025,1720215,0,0,0,0,0,0,0,0,0,0,1.4822e-323,108.333,50,0,0,0
0,1405618026,1721216,0,0,0,0,0,0,0,0,0,0,1.4822e-323,108.333,51,0,0,0
0,1405618027,1722217,0,0,0,0,0,0,0,0,0,0,1.4822e-323,108.333,55,0,0,0
0,1405618028,1723218,0,0,0,0,0,0,0,0,0,0,1.4822e-323,108.333,55,0,0,0
0,1405618029,1724219,0,0,0,0,0,0,0,0,0,0,1.4822e-323,108.333,48,0,0,0
0,1405618030,1725220,0,0,0,0,0,0,0,0,0,0,1.4822e-323,108.333,46,0,0,0
0,1405618031,1726221,0,0,0,0,0,0,0,0,0,0,1.4822e-323,108.333,51,0,0,0
0,1405618032,1727222,0,0,0,0,0,0,0,0,0,0,1.4822e-323,108.333,50,0,0,0
0,1405618033,1728223,0,0,0,0,0,0,0,0,0,0,1.4822e-323,108.333,51,0,0,0
0,1405618034,1729225,0,0,0,0,0,0,0,0,0,0,1.4822e-323,108.333,49,0,0,0
0,1405618035,1730227,0,0,0,0,0,0,0,0,0,0,1.4822e-323,108.333,54,0,0,0
0,1405618036,1731228,0,0,0,0,0,0,0,0,0,0,1.4822e-323,108.333,54,0,0,0
0,1405618037,1732229,0,0,0,0,0,0,0,0,0,0,1.4822e-323,108.333,50,0,0,0
0,1405618038,1733232,0,0,0,0,0,0,0,0,0,0,1.4822e-323,108.333,51,0,0,0
0,1405618039,1734233,0,0,0,0,0,0,0,0,0,0,1.4822e-323,108.333,53,0,0,0
0,1405618040,1735234,0,0,0,0,0,0,0,0,0,0,1.4822e-323,108.333,53,0,0,0
0,1405618041,1736235,0,0,0,0,0,0,0,0,0,0,1.4822e-323,108.333,47,0,0,0
0,1405618042,1737236,0,0,0,0,0,0,0,0,0,0,1.4822e-323,108.333,47,0,0,0
0,1405618043,1738237,0,0,0,0,0,0,0,0,0,0,1.4822e-323,108.333,51,0,0,0
0,1405618044,1739238,0,0,0,0,0,0,0,0,0,0,1.4822e-323,108.333,53,0,0,0
0,1405618045,1740239,0,0,0,0,0,0,0,0,0,0,1.4822e-323,108.333,47,0,0,0
